# Arias Intensities from input accel: ./test_inputs/NGA_no_1063_RRS228.AT2
# Peak Arias Intensity (cm/sec): 750.317049 (secs): 19.890000
# Arias Intervals: T5-75 3.460000 (s), T5-95 7.260000 (secs)
# Seconds Accel (g) Arias Intensity (cm/s) ADNormalized (%)
# 1990 0.010000  NPTS, DT
 0.000000 -0.007315  0.000000  0.000000
 0.010000 -0.007358  0.000829  0.000111
 0.020000 -0.000529  0.001249  0.000166
 0.030000  0.007142  0.001644  0.000219
 0.040000  0.014738  0.003710  0.000495
 0.050000  0.012436  0.006575  0.000876
 0.060000 -0.011322  0.008755  0.001167
 0.070000 -0.039193  0.021577  0.002876
 0.080000 -0.030692  0.040670  0.005420
 0.090000 -0.005289  0.048143  0.006416
 0.100000 -0.000212  0.048359  0.006445
 0.110000 -0.019148  0.051184  0.006822
 0.120000 -0.049092  0.072578  0.009673
 0.130000 -0.060623  0.119462  0.015922
 0.140000 -0.051664  0.168344  0.022436
 0.150000 -0.043344  0.203384  0.027106
 0.160000 -0.037212  0.228528  0.030458
 0.170000 -0.040926  0.252102  0.033599
 0.180000 -0.071767  0.304691  0.040608
 0.190000 -0.097291  0.417305  0.055617
 0.200000 -0.082235  0.542339  0.072281
 0.210000 -0.046314  0.610970  0.081428
 0.220000 -0.027325  0.633249  0.084398
 0.230000 -0.016887  0.641199  0.085457
 0.240000 -0.010380  0.644226  0.085861
 0.250000 -0.033626  0.653768  0.087132
 0.260000 -0.081134  0.713199  0.095053
 0.270000 -0.088847  0.824736  0.109918
 0.280000 -0.056887  0.910489  0.121347
 0.290000 -0.028209  0.941554  0.125487
 0.300000  0.013697  0.949131  0.126497
 0.310000  0.060797  0.979055  0.130486
 0.320000  0.077491  1.053800  0.140447
 0.330000  0.078772  1.147874  0.152985
 0.340000  0.073169  1.236932  0.164855
 0.350000  0.053564  1.300287  0.173298
 0.360000  0.027707  1.328307  0.177033
 0.370000  0.006172  1.334515  0.177860
 0.380000  0.031660  1.342531  0.178929
 0.390000  0.036866  1.360726  0.181353
 0.400000 -0.029521  1.377912  0.183644
 0.410000 -0.046916  1.401586  0.186799
 0.420000 -0.036599  1.428866  0.190435
 0.430000 -0.046348  1.455737  0.194016
 0.440000  0.017949  1.474770  0.196553
 0.450000  0.059357  1.504398  0.200502
 0.460000  0.041363  1.544725  0.205876
 0.470000  0.060251  1.585877  0.211361
 0.480000  0.078027  1.660755  0.221340
 0.490000  0.054236  1.730327  0.230613
 0.500000  0.046575  1.769703  0.235861
 0.510000  0.061759  1.815804  0.242005
 0.520000  0.052256  1.866230  0.248725
 0.530000 -0.008701  1.887852  0.251607
 0.540000 -0.063540  1.919542  0.255831
 0.550000 -0.049520  1.969543  0.262495
 0.560000 -0.021136  1.991878  0.265472
 0.570000 -0.034261  2.004364  0.267136
 0.580000 -0.064460  2.045422  0.272608
 0.590000 -0.054873  2.100634  0.279966
 0.600000 -0.031238  2.131352  0.284060
 0.610000 -0.051905  2.159628  0.287829
 0.620000 -0.107889  2.270069  0.302548
 0.630000 -0.152272  2.538401  0.338310
 0.640000 -0.140370  2.868862  0.382353
 0.650000 -0.034801  3.030005  0.403830
 0.660000  0.068975  3.075992  0.409959
 0.670000  0.088631  3.173173  0.422911
 0.680000  0.031835  3.241506  0.432018
 0.690000 -0.019761  3.252322  0.433460
 0.700000 -0.020585  3.258596  0.434296
 0.710000  0.011910  3.262953  0.434877
 0.720000  0.022620  3.267989  0.435548
 0.730000 -0.015073  3.273681  0.436306
 0.740000 -0.038822  3.287044  0.438087
 0.750000 -0.027457  3.304465  0.440409
 0.760000 -0.039632  3.322375  0.442796
 0.770000 -0.102080  3.414763  0.455109
 0.780000 -0.177741  3.738456  0.498250
 0.790000 -0.219931  4.354540  0.580360
 0.800000 -0.201534  5.040153  0.671736
 0.810000 -0.101680  5.432747  0.724060
 0.820000 -0.020634  5.515685  0.735114
 0.830000  0.028086  5.525043  0.736361
 0.840000  0.015691  5.533018  0.737424
 0.850000 -0.013155  5.536248  0.737855
 0.860000 -0.000063  5.537582  0.738032
 0.870000 -0.000187  5.537582  0.738032
 0.880000 -0.002102  5.537616  0.738037
 0.890000  0.008631  5.538224  0.738118
 0.900000  0.016980  5.541020  0.738490
 0.910000  0.011655  5.544288  0.738926
 0.920000  0.006381  5.545648  0.739107
 0.930000  0.026278  5.551282  0.739858
 0.940000  0.052422  5.577776  0.743389
 0.950000  0.047899  5.616626  0.748567
 0.960000  0.026643  5.639772  0.751652
 0.970000  0.018122  5.647771  0.752718
 0.980000  0.030582  5.657507  0.754016
 0.990000  0.009032  5.665342  0.755060
 1.000000  0.000012  5.665970  0.755143
 1.010000  0.019672  5.668952  0.755541
 1.020000  0.011507  5.672954  0.756074
 1.030000 -0.077034  5.719695  0.762304
 1.040000 -0.148057  5.934312  0.790907
 1.050000 -0.151156  6.279246  0.836879
 1.060000 -0.149691  6.627929  0.883350
 1.070000 -0.127531  6.925884  0.923061
 1.080000 -0.049905  7.070384  0.942320
 1.090000  0.026038  7.094797  0.945573
 1.100000  0.038113  7.111212  0.947761
 1.110000  0.015223  7.124190  0.949491
 1.120000 -0.007022  7.126355  0.949779
 1.130000 -0.017239  7.129025  0.950135
 1.140000 -0.017357  7.133635  0.950749
 1.150000  0.108228  7.226205  0.963087
 1.160000  0.256579  7.823679  1.042716
 1.170000  0.262513  8.861862  1.181082
 1.180000  0.072713  9.433557  1.257276
 1.190000 -0.086419  9.531835  1.270374
 1.200000 -0.061738  9.618743  1.281957
 1.210000 -0.011386  9.649109  1.286004
 1.220000 -0.029835  9.656966  1.287051
 1.230000 -0.062525  9.693945  1.291980
 1.240000 -0.015820  9.725993  1.296251
 1.250000 -0.036645  9.738268  1.297887
 1.260000 -0.082026  9.800453  1.306175
 1.270000 -0.070482  9.890567  1.318185
 1.280000 -0.036995  9.939386  1.324692
 1.290000 -0.041170  9.962991  1.327837
 1.300000 -0.093155  10.042911  1.338489
 1.310000 -0.125594  10.231306  1.363598
 1.320000 -0.157446  10.543835  1.405251
 1.330000 -0.177259  10.976919  1.462971
 1.340000 -0.163965  11.426147  1.522843
 1.350000 -0.127710  11.758949  1.567197
 1.360000 -0.057168  11.909793  1.587301
 1.370000  0.014904  11.936684  1.590885
 1.380000  0.036657  11.948748  1.592493
 1.390000  0.040395  11.971674  1.595549
 1.400000  0.051607  12.004766  1.599959
 1.410000  0.058030  12.051232  1.606152
 1.420000  0.046647  12.093944  1.611844
 1.430000  0.035386  12.120357  1.615365
 1.440000  0.028904  12.136442  1.617508
 1.450000 -0.040884  12.155758  1.620083
 1.460000 -0.138737  12.316937  1.641564
 1.470000 -0.174135  12.698869  1.692467
 1.480000 -0.155248  13.118200  1.748354
 1.490000 -0.115563  13.406795  1.786817
 1.500000 -0.050910  13.529660  1.803192
 1.510000  0.024677  13.554321  1.806479
 1.520000  0.071053  13.597911  1.812289
 1.530000  0.114133  13.737174  1.830849
 1.540000  0.153308  14.018627  1.868360
 1.550000  0.158889  14.394226  1.918419
 1.560000  0.127484  14.713957  1.961032
 1.570000  0.077155  14.885042  1.983834
 1.580000  0.041277  14.944035  1.991696
 1.590000  0.042038  14.970778  1.995260
 1.600000  0.079191  15.032712  2.003515
 1.610000  0.084583  15.136153  2.017301
 1.620000  0.037636  15.202189  2.026102
 1.630000 -0.013950  15.214602  2.027756
 1.640000 -0.015356  15.217918  2.028198
 1.650000  0.041554  15.233039  2.030214
 1.660000  0.087995  15.306002  2.039938
 1.670000  0.080231  15.415257  2.054499
 1.680000  0.028421  15.471076  2.061938
 1.690000 -0.044941  15.492861  2.064842
 1.700000 -0.104595  15.592713  2.078150
 1.710000 -0.136064  15.819645  2.108395
 1.720000 -0.113518  16.061572  2.140638
 1.730000 -0.070680  16.199349  2.159000
 1.740000 -0.069686  16.275254  2.169117
 1.750000 -0.087858  16.372143  2.182030
 1.760000 -0.064069  16.463243  2.194171
 1.770000  0.016251  16.496904  2.198658
 1.780000  0.062436  16.528974  2.202932
 1.790000  0.065770  16.592337  2.211377
 1.800000  0.070532  16.663995  2.220927
 1.810000  0.077048  16.748062  2.232131
 1.820000  0.073885  16.835861  2.243833
 1.830000  0.076045  16.922476  2.255377
 1.840000  0.100790  17.045301  2.271746
 1.850000  0.128813  17.251414  2.299217
 1.860000  0.113912  17.479234  2.329580
 1.870000  0.052972  17.600830  2.345786
 1.880000  0.015320  17.624258  2.348908
 1.890000  0.027969  17.632094  2.349952
 1.900000  0.067110  17.672821  2.355381
 1.910000  0.100897  17.785958  2.370459
 1.920000  0.109556  17.956871  2.393238
 1.930000  0.107469  18.138334  2.417423
 1.940000  0.102754  18.308670  2.440125
 1.950000  0.097602  18.463417  2.460749
 1.960000  0.096087  18.607949  2.480012
 1.970000  0.087157  18.737613  2.497293
 1.980000  0.079550  18.844899  2.511591
 1.990000  0.098258  18.968043  2.528004
 2.000000  0.145657  19.205893  2.559704
 2.010000  0.189843  19.647039  2.618498
 2.020000  0.214239  20.278356  2.702638
 2.030000  0.217921  20.997887  2.798535
 2.040000  0.219948  21.736517  2.896978
 2.050000  0.236102  22.538746  3.003896
 2.060000  0.245442  23.432389  3.122998
 2.070000  0.239916  24.340021  3.243965
 2.080000  0.221588  25.161817  3.353491
 2.090000  0.232547  25.956789  3.459443
 2.100000  0.280508  26.979694  3.595773
 2.110000  0.340686  28.480208  3.795757
 2.120000  0.343272  30.282371  4.035943
 2.130000  0.295590  31.863457  4.246666
 2.140000  0.244734  32.998122  4.397891
 2.150000  0.229143  33.864147  4.513312
 2.160000  0.237306  34.702583  4.625056
 2.170000  0.241896  35.587303  4.742969
 2.180000  0.268493  36.593561  4.877080
 2.190000  0.318472  37.930436  5.055254
 2.200000  0.352324  39.668295  5.286871
 2.210000  0.375479  41.710954  5.559111
 2.220000  0.406554  44.070694  5.873610
 2.230000  0.437038  46.815809  6.239470
 2.240000  0.448183  49.835074  6.641869
 2.250000  0.449880  52.942094  7.055963
 2.260000  0.451301  56.070722  7.472937
 2.270000  0.456728  59.247186  7.896287
 2.280000  0.473829  62.584226  8.341038
 2.290000  0.496319  66.211984  8.824534
 2.300000  0.513274  70.139735  9.348013
 2.310000  0.528114  74.318445  9.904939
 2.320000  0.542498  78.734877  10.493548
 2.330000  0.550285  83.335522  11.106708
 2.340000  0.549967  87.999036  11.728247
 2.350000  0.551141  92.669814  12.350754
 2.360000  0.551431  97.353016  12.974917
 2.370000  0.553704  102.058035  13.601988
 2.380000  0.560542  106.841112  14.239462
 2.390000  0.577071  111.827771  14.904069
 2.400000  0.597310  117.142436  15.612392
 2.410000  0.600324  122.668042  16.348828
 2.420000  0.531545  127.621653  17.009030
 2.430000  0.443129  131.311486  17.500800
 2.440000  0.241474  133.273680  17.762315
 2.450000  0.049226  133.741612  17.824680
 2.460000 -0.061847  133.789754  17.831096
 2.470000 -0.184429  134.081295  17.869952
 2.480000 -0.312768  135.097074  18.005332
 2.490000 -0.405466  137.117465  18.274603
 2.500000 -0.513143  140.412931  18.713813
 2.510000 -0.614733  145.353316  19.372253
 2.520000 -0.654997  151.570420  20.200850
 2.530000 -0.697803  158.627592  21.141408
 2.540000 -0.750486  166.718805  22.219781
 2.550000 -0.762633  175.539505  23.395377
 2.560000 -0.755568  184.419175  24.578833
 2.570000 -0.759734  193.264842  25.757757
 2.580000 -0.759319  202.154290  26.942516
 2.590000 -0.755177  210.990548  28.120186
 2.600000 -0.743078  219.638807  29.272800
 2.610000 -0.732430  228.026348  30.390666
 2.620000 -0.716195  236.111634  31.468249
 2.630000 -0.700892  243.848633  32.499413
 2.640000 -0.680528  251.201806  33.479421
 2.650000 -0.673272  258.262548  34.420456
 2.660000 -0.672623  265.240876  35.350506
 2.670000 -0.680269  272.292173  36.290282
 2.680000 -0.687874  279.503336  37.251364
 2.690000 -0.695279  286.873579  38.233648
 2.700000 -0.693779  294.306682  39.224310
 2.710000 -0.701622  301.808053  40.224070
 2.720000 -0.731089  309.719024  41.278420
 2.730000 -0.781718  318.545393  42.454772
 2.740000 -0.825195  328.500167  43.781514
 2.750000 -0.824587  338.985497  45.178968
 2.760000 -0.770272  348.795675  46.486439
 2.770000 -0.720485  357.366581  47.628743
 2.780000 -0.612741  364.258872  48.547327
 2.790000 -0.505713  369.122092  49.195482
 2.800000 -0.423305  372.473143  49.642100
 2.810000 -0.340189  374.745396  49.944939
 2.820000 -0.266393  376.183826  50.136649
 2.830000 -0.218412  377.098142  50.258506
 2.840000 -0.169261  377.686424  50.336911
 2.850000 -0.113305  378.006074  50.379513
 2.860000 -0.057938  378.130851  50.396143
 2.870000 -0.031114  378.164173  50.400584
 2.880000 -0.029411  378.178296  50.402466
 2.890000 -0.056365  378.209439  50.406617
 2.900000 -0.096072  378.305031  50.419357
 2.910000 -0.104923  378.460965  50.440139
 2.920000 -0.096538  378.617591  50.461014
 2.930000 -0.087955  378.749001  50.478528
 2.940000 -0.073933  378.850720  50.492085
 2.950000  0.008540  378.893397  50.497773
 2.960000  0.134378  379.033087  50.516390
 2.970000  0.252718  379.664291  50.600515
 2.980000  0.424219  381.542927  50.850894
 2.990000  0.541795  385.191156  51.337119
 3.000000  0.616987  390.385817  52.029448
 3.010000  0.505918  395.290865  52.683178
 3.020000  0.386164  398.411874  53.099136
 3.030000  0.331999  400.410071  53.365450
 3.040000  0.289569  401.905360  53.564738
 3.050000  0.264173  403.089101  53.722503
 3.060000  0.236863  404.059063  53.851777
 3.070000  0.246228  404.958457  53.971645
 3.080000  0.277998  406.021029  54.113262
 3.090000  0.312062  407.366785  54.292620
 3.100000  0.338028  408.997462  54.509952
 3.110000  0.355655  410.852409  54.757174
 3.120000  0.351356  412.778147  55.013830
 3.130000  0.330649  414.571659  55.252864
 3.140000  0.266508  415.961252  55.438065
 3.150000  0.212753  416.857241  55.557480
 3.160000  0.199434  417.512436  55.644802
 3.170000  0.199058  418.124178  55.726333
 3.180000  0.202819  418.746412  55.809263
 3.190000  0.201000  419.374631  55.892990
 3.200000  0.194950  419.978734  55.973503
 3.210000  0.192346  420.556610  56.050520
 3.220000  0.191368  421.123824  56.126117
 3.230000  0.185705  421.671694  56.199135
 3.240000  0.168814  422.156974  56.263812
 3.250000  0.146957  422.542940  56.315252
 3.260000  0.125284  422.830270  56.353547
 3.270000  0.094051  423.019357  56.378748
 3.280000  0.051181  423.107693  56.390521
 3.290000  0.020765  423.131198  56.393654
 3.300000  0.019196  423.137359  56.394475
 3.310000  0.051012  423.160248  56.397525
 3.320000  0.124705  423.300117  56.416167
 3.330000  0.202150  423.734788  56.474098
 3.340000  0.251416  424.536657  56.580969
 3.350000  0.282120  425.636910  56.727607
 3.360000  0.318881  427.033603  56.913755
 3.370000  0.347712  428.748595  57.142323
 3.380000  0.367574  430.721122  57.405216
 3.390000  0.372785  432.832837  57.686659
 3.400000  0.357776  434.889793  57.960804
 3.410000  0.329641  436.713254  58.203829
 3.420000  0.304654  438.265587  58.410719
 3.430000  0.281023  439.589171  58.587123
 3.440000  0.240106  440.641832  58.727418
 3.450000  0.196405  441.383228  58.826229
 3.460000  0.142062  441.835933  58.886565
 3.470000  0.040208  442.003884  58.908948
 3.480000 -0.029897  442.023226  58.911526
 3.490000 -0.064461  442.062128  58.916711
 3.500000 -0.095832  442.164902  58.930408
 3.510000 -0.130581  442.367038  58.957349
 3.520000 -0.161396  442.699113  59.001607
 3.530000 -0.207103  443.230281  59.072399
 3.540000 -0.254368  444.059273  59.182885
 3.550000 -0.274931  445.140174  59.326944
 3.560000 -0.289824  446.369737  59.490816
 3.570000 -0.313776  447.775496  59.678172
 3.580000 -0.325101  449.348391  59.887802
 3.590000 -0.312635  450.915780  60.096699
 3.600000 -0.280310  452.274239  60.277751
 3.610000 -0.268504  453.435100  60.432467
 3.620000 -0.265630  454.534211  60.578953
 3.630000 -0.248458  455.553479  60.714798
 3.640000 -0.211699  456.374404  60.824208
 3.650000 -0.179994  456.969321  60.903497
 3.660000 -0.167067  457.433989  60.965427
 3.670000 -0.179531  457.897375  61.027185
 3.680000 -0.217371  458.509760  61.108802
 3.690000 -0.299863  459.566606  61.249655
 3.700000 -0.343481  461.168402  61.463138
 3.710000 -0.311612  462.825550  61.683998
 3.720000 -0.184093  463.834814  61.818509
 3.730000 -0.057754  464.121629  61.856735
 3.740000 -0.000868  464.147335  61.860161
 3.750000  0.044179  464.162379  61.862166
 3.760000  0.068417  464.213482  61.868977
 3.770000  0.079118  464.297776  61.880211
 3.780000  0.089510  464.407737  61.894867
 3.790000  0.092339  464.535163  61.911850
 3.800000  0.077229  464.646812  61.926730
 3.810000  0.059017  464.719602  61.936431
 3.820000  0.048675  464.764692  61.942441
 3.830000  0.040616  464.795657  61.946567
 3.840000  0.036118  464.818418  61.949601
 3.850000  0.033704  464.837220  61.952107
 3.860000  0.039833  464.858198  61.954903
 3.870000  0.060865  464.898966  61.960336
 3.880000  0.124153  465.046269  61.979968
 3.890000  0.190493  465.444617  62.033059
 3.900000  0.197149  466.023671  62.110233
 3.910000  0.183736  466.583241  62.184811
 3.920000  0.166042  467.055765  62.247788
 3.930000  0.113216  467.366943  62.289261
 3.940000  0.038233  467.476964  62.303924
 3.950000 -0.035168  467.497756  62.306695
 3.960000 -0.105879  467.593658  62.319477
 3.970000 -0.181531  467.933929  62.364827
 3.980000 -0.239659  468.630362  62.457645
 3.990000 -0.258125  469.586252  62.585044
 4.000000 -0.260352  470.621861  62.723066
 4.010000 -0.267664  471.696114  62.866240
 4.020000 -0.270625  472.812393  63.015014
 4.030000 -0.272950  473.950691  63.166723
 4.040000 -0.270034  475.086527  63.318104
 4.050000 -0.270521  476.212191  63.468129
 4.060000 -0.271362  477.343395  63.618892
 4.070000 -0.293862  478.576096  63.783183
 4.080000 -0.325124  480.055876  63.980404
 4.090000 -0.258653  481.385770  64.157648
 4.100000 -0.062807  481.931622  64.230397
 4.110000  0.063435  481.993018  64.238580
 4.120000  0.141307  482.177868  64.263216
 4.130000  0.255354  482.834107  64.350678
 4.140000  0.426341  484.736969  64.604286
 4.150000  0.515920  488.188238  65.064260
 4.160000  0.532371  492.422713  65.628618
 4.170000  0.513363  496.636909  66.190274
 4.180000  0.424106  500.053256  66.645594
 4.190000  0.248295  501.914080  66.893599
 4.200000  0.114659  502.490373  66.970406
 4.210000  0.059830  502.619246  66.987582
 4.220000  0.037918  502.657904  66.992734
 4.230000 -0.006587  502.669316  66.994255
 4.240000 -0.094502  502.738458  67.003470
 4.250000 -0.175565  503.044750  67.044292
 4.260000 -0.248083  503.756425  67.139141
 4.270000 -0.270198  504.793116  67.277309
 4.280000 -0.271815  505.924871  67.428145
 4.290000 -0.298870  507.182338  67.595737
 4.300000 -0.344504  508.784976  67.809332
 4.310000 -0.390982  510.877202  68.088177
 4.320000 -0.432487  513.496140  68.437221
 4.330000 -0.451107  516.505175  68.838257
 4.340000 -0.450271  519.635167  69.255412
 4.350000 -0.408001  522.479830  69.634541
 4.360000 -0.347692  524.693827  69.929615
 4.370000 -0.334120  526.485382  70.168389
 4.380000 -0.298773  528.033279  70.374688
 4.390000 -0.169511  528.942435  70.495857
 4.400000 -0.045015  529.179436  70.527444
 4.410000  0.010332  529.195872  70.529634
 4.420000  0.051630  529.217233  70.532481
 4.430000  0.086874  529.295920  70.542969
 4.440000  0.140185  529.505481  70.570898
 4.450000  0.167734  529.873665  70.619969
 4.460000  0.179646  530.339089  70.681999
 4.470000  0.211318  530.931800  70.760994
 4.480000  0.294381  531.943554  70.895837
 4.490000  0.328744  533.443923  71.095802
 4.500000  0.308379  535.009300  71.304431
 4.510000  0.230918  536.152845  71.456839
 4.520000  0.136217  536.706649  71.530648
 4.530000  0.075846  536.893934  71.555609
 4.540000  0.033478  536.946893  71.562667
 4.550000  0.039319  536.967440  71.565406
 4.560000  0.069837  537.016929  71.572001
 4.570000  0.113879  537.154425  71.590327
 4.580000  0.139932  537.405211  71.623750
 4.590000  0.135318  537.697159  71.662660
 4.600000  0.057956  537.864120  71.684913
 4.610000 -0.035594  537.899761  71.689663
 4.620000 -0.113927  538.009525  71.704292
 4.630000 -0.140726  538.262111  71.737956
 4.640000 -0.121582  538.528588  71.773471
 4.650000 -0.087092  538.700922  71.796439
 4.660000 -0.057038  538.784430  71.807569
 4.670000 -0.012828  538.810764  71.811078
 4.680000  0.049248  538.830719  71.813738
 4.690000  0.076435  538.894420  71.822228
 4.700000  0.079183  538.987742  71.834665
 4.710000  0.034619  539.045284  71.842335
 4.720000 -0.049296  539.073241  71.846061
 4.730000 -0.092288  539.157587  71.857302
 4.740000 -0.072032  539.263186  71.871376
 4.750000 -0.033379  539.311747  71.877848
 4.760000 -0.008445  539.320881  71.879065
 4.770000  0.036096  539.331469  71.880476
 4.780000  0.091645  539.406218  71.890439
 4.790000  0.125158  539.591620  71.915149
 4.800000  0.118128  539.819825  71.945563
 4.810000  0.080672  539.977481  71.966575
 4.820000  0.062827  540.058035  71.977311
 4.830000  0.063916  540.119923  71.985559
 4.840000  0.068303  540.187344  71.994545
 4.850000  0.073279  540.264661  72.004849
 4.860000  0.084752  540.361377  72.017739
 4.870000  0.130596  540.548126  72.042629
 4.880000  0.182433  540.935962  72.094318
 4.890000  0.212748  541.541120  72.174972
 4.900000  0.218147  542.256505  72.270316
 4.910000  0.197265  542.922979  72.359142
 4.920000  0.168143  543.440627  72.428133
 4.930000  0.142262  543.814389  72.477947
 4.940000  0.127910  544.096379  72.515529
 4.950000  0.127101  544.346904  72.548918
 4.960000  0.150731  544.646423  72.588837
 4.970000  0.183886  545.082002  72.646890
 4.980000  0.202050  545.657072  72.723534
 4.990000  0.200935  546.282691  72.806914
 5.000000  0.134040  546.732199  72.866823
 5.010000  0.036513  546.880900  72.886642
 5.020000 -0.051229  546.911393  72.890706
 5.030000 -0.134496  547.070986  72.911976
 5.040000 -0.159968  547.407522  72.956828
 5.050000 -0.152834  547.784654  73.007091
 5.060000 -0.154428  548.148367  73.055566
 5.070000 -0.159317  548.527671  73.106119
 5.080000 -0.168580  548.942196  73.161365
 5.090000 -0.176780  549.401941  73.222639
 5.100000 -0.165087  549.852707  73.282715
 5.110000 -0.130612  550.194130  73.328219
 5.120000 -0.063214  550.356358  73.349840
 5.130000  0.021277  550.390634  73.354409
 5.140000  0.058043  550.420080  73.358333
 5.150000  0.051363  550.466364  73.364502
 5.160000  0.019739  550.489692  73.367611
 5.170000 -0.002030  550.492726  73.368015
 5.180000 -0.014748  550.494434  73.368243
 5.190000 -0.038588  550.507582  73.369995
 5.200000 -0.064178  550.550789  73.375754
 5.210000 -0.091107  550.646477  73.388507
 5.220000 -0.108815  550.801660  73.409189
 5.230000 -0.121056  551.005800  73.436396
 5.240000 -0.144296  551.279133  73.472825
 5.250000 -0.191277  551.721449  73.531776
 5.260000 -0.207846  552.336188  73.613706
 5.270000 -0.177267  552.911144  73.690335
 5.280000 -0.091814  553.218204  73.731259
 5.290000 -0.006264  553.283456  73.739955
 5.300000  0.030394  553.290876  73.740944
 5.310000  0.068484  553.334129  73.746709
 5.320000  0.090615  553.433529  73.759957
 5.330000  0.089505  553.558516  73.776614
 5.340000  0.087715  553.679520  73.792741
 5.350000  0.089003  553.799833  73.808776
 5.360000  0.085886  553.917700  73.824485
 5.370000  0.077304  554.020576  73.838196
 5.380000  0.073534  554.108281  73.849885
 5.390000  0.086000  554.206926  73.863033
 5.400000  0.108932  554.355336  73.882812
 5.410000  0.132360  554.581743  73.912987
 5.420000  0.151794  554.894253  73.954637
 5.430000  0.156829  555.261282  74.003554
 5.440000  0.140993  555.603947  74.049223
 5.450000  0.089834  555.819288  74.077923
 5.460000  0.027137  555.887139  74.086966
 5.470000 -0.009199  555.893465  74.087809
 5.480000 -0.015627  555.895999  74.088147
 5.490000 -0.000202  555.897881  74.088398
 5.500000  0.010144  555.898674  74.088504
 5.510000  0.002096  555.899500  74.088614
 5.520000 -0.035351  555.909163  74.089902
 5.530000 -0.084342  555.973599  74.098489
 5.540000 -0.129638  556.157893  74.123052
 5.550000 -0.175722  556.525289  74.172017
 5.560000 -0.203963  557.083723  74.246443
 5.570000 -0.213047  557.753959  74.335770
 5.580000 -0.205907  558.430334  74.425916
 5.590000 -0.190340  559.036136  74.506655
 5.600000 -0.177064  559.556831  74.576052
 5.610000 -0.170883  560.023374  74.638231
 5.620000 -0.179473  560.496535  74.701293
 5.630000 -0.202402  561.060347  74.776436
 5.640000 -0.235980  561.805036  74.875686
 5.650000 -0.268678  562.790277  75.006996
 5.660000 -0.291225  563.999923  75.168214
 5.670000 -0.288053  565.292677  75.340508
 5.680000 -0.212660  566.280418  75.472151
 5.690000 -0.124198  566.747707  75.534430
 5.700000 -0.042851  566.880701  75.552155
 5.710000 -0.003409  566.894938  75.554053
 5.720000 -0.011176  566.895990  75.554193
 5.730000 -0.010068  566.897734  75.554425
 5.740000  0.006670  566.898858  75.554575
 5.750000  0.014078  566.900727  75.554824
 5.760000 -0.001556  566.902273  75.555030
 5.770000 -0.037868  566.913340  75.556505
 5.780000 -0.068003  566.960018  75.562726
 5.790000 -0.066862  567.030093  75.572066
 5.800000 -0.044589  567.079856  75.578698
 5.810000 -0.027540  567.101018  75.581518
 5.820000 -0.024139  567.111351  75.582896
 5.830000 -0.014866  567.117544  75.583721
 5.840000 -0.006896  567.119613  75.583997
 5.850000 -0.006806  567.120336  75.584093
 5.860000 -0.009892  567.121447  75.584241
 5.870000 -0.004497  567.122357  75.584362
 5.880000  0.009074  567.123147  75.584468
 5.890000  0.027963  567.129806  75.585355
 5.900000  0.058581  567.162271  75.589682
 5.910000  0.092396  567.254487  75.601972
 5.920000  0.104923  567.405083  75.622043
 5.930000  0.095871  567.560720  75.642786
 5.940000  0.061870  567.661030  75.656155
 5.950000  0.027840  567.696495  75.660882
 5.960000  0.004643  567.702632  75.661700
 5.970000  0.014672  567.704457  75.661943
 5.980000  0.044223  567.721184  75.664172
 5.990000  0.087205  567.794844  75.673989
 6.000000  0.127265  567.978226  75.698430
 6.010000  0.155885  568.290242  75.740015
 6.020000  0.190705  568.757678  75.802313
 6.030000  0.242733  569.491846  75.900161
 6.040000  0.292727  570.606019  76.048654
 6.050000  0.334212  572.126836  76.251344
 6.060000  0.375332  574.072839  76.510702
 6.070000  0.414828  576.484092  76.832066
 6.080000  0.453476  579.394354  77.219937
 6.090000  0.490396  582.831666  77.678052
 6.100000  0.513045  586.712578  78.195288
 6.110000  0.528180  590.890014  78.752044
 6.120000  0.528705  595.193144  79.325553
 6.130000  0.516951  599.405853  79.887010
 6.140000  0.497423  603.371244  80.415505
 6.150000  0.484123  607.083432  80.910254
 6.160000  0.452665  610.467983  81.361337
 6.170000  0.381993  613.170998  81.721587
 6.180000  0.226651  614.691064  81.924177
 6.190000  0.078024  615.133767  81.983179
 6.200000  0.029899  615.187559  81.990348
 6.210000  0.025040  615.199278  81.991910
 6.220000 -0.000315  615.204109  81.992554
 6.230000 -0.067493  615.239207  81.997232
 6.240000 -0.140125  615.425588  82.022072
 6.250000 -0.181182  615.829794  82.075943
 6.260000 -0.187819  616.354510  82.145876
 6.270000 -0.189899  616.904149  82.219130
 6.280000 -0.198569  617.485791  82.296649
 6.290000 -0.186836  618.058542  82.372984
 6.300000 -0.144604  618.488606  82.430302
 6.310000 -0.094425  618.718411  82.460929
 6.320000 -0.069811  618.824656  82.475089
 6.330000 -0.058278  618.888374  82.483581
 6.340000 -0.017037  618.916778  82.487367
 6.350000  0.035225  618.928574  82.488939
 6.360000  0.050812  618.958027  82.492865
 6.370000  0.044238  618.992998  82.497525
 6.380000  0.027795  619.014029  82.500328
 6.390000  0.013342  619.021353  82.501304
 6.400000  0.012407  619.023910  82.501645
 6.410000  0.043138  619.039434  82.503714
 6.420000  0.066568  619.087914  82.510175
 6.430000  0.062092  619.151761  82.518685
 6.440000  0.051478  619.201883  82.525365
 6.450000  0.037317  619.233030  82.529516
 6.460000  0.039493  619.255776  82.532548
 6.470000  0.061244  619.296692  82.538001
 6.480000  0.091626  619.390275  82.550473
 6.490000  0.108750  619.546079  82.571238
 6.500000  0.115774  619.740471  82.597146
 6.510000  0.118526  619.951983  82.625336
 6.520000  0.116805  620.165341  82.653772
 6.530000  0.121497  620.384194  82.682940
 6.540000  0.141935  620.653145  82.718785
 6.550000  0.155967  620.995785  82.764451
 6.560000  0.145253  621.345767  82.811095
 6.570000  0.077650  621.554782  82.838952
 6.580000 -0.014276  621.602808  82.845353
 6.590000 -0.076630  621.649622  82.851592
 6.600000 -0.096107  621.766032  82.867107
 6.610000 -0.125499  621.958547  82.892765
 6.620000 -0.159902  622.276897  82.935194
 6.630000 -0.165789  622.685670  82.989674
 6.640000 -0.163896  623.104408  83.045482
 6.650000 -0.159620  623.507678  83.099228
 6.660000 -0.159203  623.899266  83.151418
 6.670000 -0.158097  624.287125  83.203111
 6.680000 -0.168007  624.697180  83.257762
 6.690000 -0.192801  625.201060  83.324917
 6.700000 -0.240227  625.932097  83.422348
 6.710000 -0.289376  627.021915  83.567595
 6.720000 -0.332057  628.516640  83.766808
 6.730000 -0.386659  630.518082  84.033554
 6.740000 -0.437197  633.142679  84.383352
 6.750000 -0.450570  636.179544  84.788097
 6.760000 -0.451501  639.314351  85.205894
 6.770000 -0.416384  642.220807  85.593258
 6.780000 -0.340493  644.449878  85.890342
 6.790000 -0.241457  645.792331  86.069260
 6.800000 -0.136267  646.384597  86.148195
 6.810000 -0.030185  646.534685  86.168199
 6.820000  0.053177  646.563492  86.172038
 6.830000  0.102794  646.666693  86.185792
 6.840000  0.143533  646.906837  86.217798
 6.850000  0.201789  647.379297  86.280766
 6.860000  0.244376  648.153150  86.383903
 6.870000  0.249470  649.092783  86.509134
 6.880000  0.229851  649.979344  86.627292
 6.890000  0.155215  650.572019  86.706282
 6.900000  0.054141  650.780224  86.734031
 6.910000  0.020973  650.806197  86.737493
 6.920000  0.016928  650.811794  86.738239
 6.930000  0.002900  650.814067  86.738542
 6.940000 -0.022092  650.817892  86.739052
 6.950000 -0.070698  650.860162  86.744685
 6.960000 -0.142516  651.055161  86.770674
 6.970000 -0.174845  651.447192  86.822923
 6.980000 -0.175189  651.919200  86.885831
 6.990000 -0.177163  652.397495  86.949576
 7.000000 -0.168720  652.858649  87.011038
 7.010000 -0.141385  653.231992  87.060796
 7.020000 -0.055452  653.409699  87.084480
 7.030000  0.024140  653.437880  87.088236
 7.040000  0.031712  653.450119  87.089867
 7.050000  0.028264  653.464022  87.091720
 7.060000  0.026024  653.475395  87.093236
 7.070000  0.011577  653.481645  87.094069
 7.080000 -0.024826  653.487427  87.094839
 7.090000 -0.056824  653.517054  87.098788
 7.100000 -0.072169  653.582062  87.107452
 7.110000 -0.086645  653.680033  87.120509
 7.120000 -0.122101  653.852743  87.143527
 7.130000 -0.151874  654.145326  87.182522
 7.140000 -0.164448  654.531403  87.233977
 7.150000 -0.180131  654.989761  87.295066
 7.160000 -0.200969  655.550943  87.369858
 7.170000 -0.214946  656.218100  87.458775
 7.180000 -0.217554  656.938737  87.554819
 7.190000 -0.190190  657.582100  87.640565
 7.200000 -0.123016  657.977394  87.693248
 7.210000 -0.032141  658.101948  87.709849
 7.220000  0.047853  658.127551  87.713261
 7.230000  0.088879  658.206057  87.723724
 7.240000  0.127041  658.391271  87.748409
 7.250000  0.147031  658.682184  87.787181
 7.260000  0.078661  658.896420  87.815734
 7.270000 -0.054981  658.967385  87.825191
 7.280000 -0.155802  659.177703  87.853222
 7.290000 -0.190261  659.643636  87.915320
 7.300000 -0.194843  660.215044  87.991476
 7.310000 -0.191633  660.790489  88.068169
 7.320000 -0.175547  661.310868  88.137524
 7.330000 -0.122800  661.664490  88.184654
 7.340000 -0.043776  661.795442  88.202106
 7.350000  0.008291  661.810737  88.204145
 7.360000  0.050888  661.831219  88.206875
 7.370000  0.107368  661.939990  88.221371
 7.380000  0.134915  662.169052  88.251900
 7.390000  0.138817  662.457766  88.290379
 7.400000  0.147719  662.774363  88.332574
 7.410000  0.153241  663.123417  88.379095
 7.420000  0.153990  663.487049  88.427559
 7.430000  0.109000  663.761291  88.464109
 7.440000 -0.003962  663.852952  88.476325
 7.450000 -0.091939  663.918200  88.485021
 7.460000 -0.096425  664.054965  88.503249
 7.470000 -0.079750  664.175606  88.519328
 7.480000 -0.079711  664.273564  88.532383
 7.490000 -0.085703  664.379110  88.546450
 7.500000 -0.077997  664.482574  88.560239
 7.510000 -0.033271  664.537975  88.567623
 7.520000  0.051575  664.566998  88.571491
 7.530000  0.105182  664.672732  88.585583
 7.540000  0.109933  664.851086  88.609353
 7.550000  0.114402  665.045038  88.635203
 7.560000  0.134311  665.284866  88.667166
 7.570000  0.152985  665.604181  88.709724
 7.580000  0.162459  665.987857  88.760859
 7.590000  0.185613  666.456654  88.823339
 7.600000  0.224959  667.112011  88.910683
 7.610000  0.246698  667.970833  89.025144
 7.620000  0.253431  668.934599  89.153592
 7.630000  0.243055  669.884618  89.280208
 7.640000  0.180664  670.591262  89.374387
 7.650000  0.093226  670.909703  89.416828
 7.660000  0.036633  670.987004  89.427130
 7.670000  0.014481  670.998960  89.428724
 7.680000 -0.027961  671.006599  89.429742
 7.690000 -0.079814  671.061704  89.437086
 7.700000 -0.091751  671.175645  89.452272
 7.710000 -0.089243  671.301869  89.469094
 7.720000 -0.078312  671.410483  89.483570
 7.730000 -0.065407  671.490696  89.494261
 7.740000 -0.060200  671.551579  89.502375
 7.750000 -0.048773  671.597830  89.508539
 7.760000 -0.004259  671.616297  89.511001
 7.770000  0.045741  671.632557  89.513168
 7.780000  0.083426  671.702302  89.522463
 7.790000  0.106242  671.842892  89.541200
 7.800000  0.103014  672.011621  89.563688
 7.810000  0.085440  672.149627  89.582081
 7.820000  0.057917  672.231715  89.593022
 7.830000  0.028888  672.263989  89.597323
 7.840000  0.006968  672.270793  89.598230
 7.850000 -0.009788  672.271905  89.598378
 7.860000 -0.023973  672.277071  89.599066
 7.870000 -0.030662  672.288743  89.600622
 7.880000 -0.029256  672.302581  89.602466
 7.890000 -0.002010  672.309207  89.603349
 7.900000  0.036825  672.319686  89.604746
 7.910000  0.057489  672.355598  89.609532
 7.920000  0.061595  672.410294  89.616822
 7.930000  0.054175  672.462138  89.623732
 7.940000  0.042213  672.498481  89.628575
 7.950000  0.019195  672.515049  89.630783
 7.960000 -0.007634  672.518337  89.631222
 7.970000 -0.040825  672.531627  89.632993
 7.980000 -0.084192  672.599082  89.641983
 7.990000 -0.116761  672.758735  89.663261
 8.000000 -0.136748  673.007854  89.696463
 8.010000 -0.147397  673.319326  89.737975
 8.020000 -0.150881  673.662118  89.783661
 8.030000 -0.152198  674.015992  89.830825
 8.040000 -0.146790  674.360484  89.876737
 8.050000 -0.123740  674.644472  89.914587
 8.060000 -0.098779  674.837623  89.940329
 8.070000 -0.074042  674.955040  89.955978
 8.080000 -0.047239  675.014472  89.963899
 8.090000 -0.017877  675.034128  89.966519
 8.100000  0.017774  675.039024  89.967171
 8.110000  0.052035  675.062320  89.970276
 8.120000  0.080262  675.132816  89.979671
 8.130000  0.119093  675.291727  90.000851
 8.140000  0.150879  675.576400  90.038791
 8.150000  0.152047  675.929915  90.085907
 8.160000  0.138103  676.254984  90.129231
 8.170000  0.101935  676.481991  90.159486
 8.180000  0.063466  676.593084  90.174292
 8.190000  0.050018  676.643394  90.180997
 8.200000  0.051154  676.682831  90.186253
 8.210000  0.050363  676.722536  90.191545
 8.220000  0.050031  676.761364  90.196720
 8.230000  0.049635  676.799631  90.201820
 8.240000  0.043316  676.833070  90.206276
 8.250000  0.034607  676.856753  90.209433
 8.260000  0.033888  676.874829  90.211842
 8.270000  0.036132  676.893736  90.214362
 8.280000  0.036374  676.913988  90.217061
 8.290000  0.034639  676.933426  90.219651
 8.300000  0.024623  676.947342  90.221506
 8.310000 -0.004858  676.952196  90.222153
 8.320000 -0.039505  676.964402  90.223780
 8.330000 -0.057985  677.002332  90.228835
 8.340000 -0.068852  677.064762  90.237155
 8.350000 -0.075923  677.145700  90.247943
 8.360000 -0.077414  677.236287  90.260016
 8.370000 -0.072883  677.323387  90.271624
 8.380000 -0.052092  677.385221  90.279865
 8.390000 -0.027509  677.411959  90.283429
 8.400000  0.000930  677.417796  90.284207
 8.410000  0.020660  677.421092  90.284646
 8.420000  0.020636  677.427661  90.285522
 8.430000  0.019069  677.433744  90.286332
 8.440000  0.024289  677.441091  90.287311
 8.450000  0.028601  677.451939  90.288757
 8.460000  0.027104  677.463901  90.290352
 8.470000  0.029962  677.476479  90.292028
 8.480000  0.046056  677.499739  90.295128
 8.490000  0.069845  677.553668  90.302315
 8.500000  0.105385  677.676823  90.318729
 8.510000  0.146244  677.927176  90.352095
 8.520000  0.167981  678.309370  90.403033
 8.530000  0.172965  678.757282  90.462729
 8.540000  0.157150  679.178062  90.518810
 8.550000  0.132768  679.504154  90.562270
 8.560000  0.121466  679.753644  90.595522
 8.570000  0.130610  679.998755  90.628189
 8.580000  0.148936  680.301097  90.668484
 8.590000  0.162324  680.675016  90.718319
 8.600000  0.172296  681.106752  90.775860
 8.610000  0.182392  681.591788  90.840504
 8.620000  0.190353  682.127277  90.911872
 8.630000  0.194927  682.699207  90.988097
 8.640000  0.195956  683.287814  91.066545
 8.650000  0.196601  683.881471  91.145666
 8.660000  0.197479  684.479745  91.225402
 8.670000  0.197205  685.079851  91.305382
 8.680000  0.189460  685.656050  91.382177
 8.690000  0.160992  686.132308  91.445651
 8.700000  0.097381  686.405069  91.482004
 8.710000  0.045051  686.493772  91.493826
 8.720000  0.015691  686.511306  91.496162
 8.730000 -0.004638  686.513369  91.496437
 8.740000 -0.012691  686.514775  91.496625
 8.750000 -0.017160  686.518285  91.497093
 8.760000 -0.021304  686.524050  91.497861
 8.770000 -0.030390  686.534663  91.499275
 8.780000 -0.047315  686.559028  91.502523
 8.790000 -0.082105  686.628216  91.511744
 8.800000 -0.115306  686.782595  91.532319
 8.810000 -0.127390  687.010067  91.562636
 8.820000 -0.121780  687.249366  91.594529
 8.830000 -0.102298  687.444260  91.620504
 8.840000 -0.085932  687.581784  91.638833
 8.850000 -0.081535  687.689900  91.653242
 8.860000 -0.086439  687.798689  91.667741
 8.870000 -0.099884  687.933125  91.685658
 8.880000 -0.121832  688.124355  91.711145
 8.890000 -0.148884  688.409504  91.749149
 8.900000 -0.169670  688.802095  91.801472
 8.910000 -0.196745  689.322139  91.870782
 8.920000 -0.231461  690.033155  91.965544
 8.930000 -0.254698  690.945747  92.087171
 8.940000 -0.261651  691.973040  92.224086
 8.950000 -0.268900  693.057626  92.368636
 8.960000 -0.268107  694.168564  92.516699
 8.970000 -0.267661  695.274380  92.664079
 8.980000 -0.195626  696.121225  92.776944
 8.990000 -0.045939  696.432342  92.818408
 9.000000  0.096287  696.520035  92.830096
 9.010000  0.151654  696.768669  92.863233
 9.020000  0.167883  697.163026  92.915792
 9.030000  0.184060  697.641205  92.979522
 9.040000  0.183809  698.162538  93.049004
 9.050000  0.167634  698.639362  93.112553
 9.060000  0.146876  699.022086  93.163562
 9.070000  0.123819  699.306420  93.201457
 9.080000  0.104439  699.508582  93.228400
 9.090000  0.084857  699.648101  93.246995
 9.100000  0.061944  699.733145  93.258329
 9.110000  0.040953  699.775630  93.263992
 9.120000  0.019039  699.791344  93.266086
 9.130000 -0.002122  699.794172  93.266463
 9.140000 -0.024234  699.798732  93.267071
 9.150000 -0.045791  699.819412  93.269827
 9.160000 -0.070451  699.873808  93.277077
 9.170000 -0.087779  699.971415  93.290085
 9.180000 -0.082205  700.082848  93.304937
 9.190000 -0.051273  700.155170  93.314576
 9.200000 -0.002511  700.175473  93.317282
 9.210000  0.043352  700.190002  93.319218
 9.220000  0.053083  700.226193  93.324041
 9.230000  0.037289  700.258617  93.328363
 9.240000 -0.021805  700.272994  93.330279
 9.250000 -0.083124  700.329894  93.337862
 9.260000 -0.125101  700.503712  93.361028
 9.270000 -0.167877  700.841434  93.406039
 9.280000 -0.197668  701.359620  93.475101
 9.290000 -0.219435  702.031662  93.564669
 9.300000 -0.246834  702.872088  93.676678
 9.310000 -0.275776  703.927481  93.817338
 9.320000 -0.303051  705.221050  93.989741
 9.330000 -0.330611  706.770812  94.196288
 9.340000 -0.336708  708.486475  94.424947
 9.350000 -0.319330  710.145648  94.646076
 9.360000 -0.235632  711.359101  94.807802
 9.370000 -0.113736  711.886556  94.878099
 9.380000 -0.048796  712.004570  94.893828
 9.390000 -0.022671  712.026875  94.896801
 9.400000  0.022406  712.034703  94.897844
 9.410000  0.066524  712.072668  94.902904
 9.420000  0.104494  712.190893  94.918661
 9.430000  0.133055  712.411424  94.948052
 9.440000  0.150821  712.723086  94.989590
 9.450000  0.166556  713.112083  95.041434
 9.460000  0.179352  713.573659  95.102952
 9.470000  0.180717  714.073126  95.169519
 9.480000  0.171183  714.550530  95.233146
 9.490000  0.140857  714.929175  95.283611
 9.500000  0.094308  715.150569  95.313117
 9.510000  0.042786  715.233199  95.324130
 9.520000 -0.010220  715.248109  95.326117
 9.530000 -0.038817  715.260522  95.327772
 9.540000 -0.055668  715.296008  95.332501
 9.550000 -0.072706  715.360614  95.341112
 9.560000 -0.079461  715.449992  95.353024
 9.570000 -0.077862  715.545351  95.365733
 9.580000 -0.072459  715.632513  95.377349
 9.590000 -0.062250  715.702822  95.386720
 9.600000 -0.052359  715.753800  95.393514
 9.610000 -0.039865  715.787167  95.397961
 9.620000 -0.027769  715.805353  95.400385
 9.630000 -0.026427  715.816675  95.401894
 9.640000 -0.030341  715.829149  95.403556
 9.650000 -0.035220  715.845799  95.405775
 9.660000 -0.041900  715.868883  95.408852
 9.670000 -0.052709  715.903815  95.413508
 9.680000 -0.072290  715.965484  95.421727
 9.690000 -0.090362  716.068660  95.435478
 9.700000 -0.104203  716.215233  95.455013
 9.710000 -0.119343  716.408630  95.480788
 9.720000 -0.127076  716.642786  95.511996
 9.730000 -0.128621  716.894667  95.545565
 9.740000 -0.128043  717.148449  95.579389
 9.750000 -0.125138  717.395422  95.612305
 9.760000 -0.119502  717.626104  95.643049
 9.770000 -0.099442  717.812323  95.667868
 9.780000 -0.041802  717.901975  95.679816
 9.790000  0.010734  717.916326  95.681729
 9.800000  0.043218  717.931605  95.683765
 9.810000  0.064346  717.977897  95.689935
 9.820000  0.075616  718.053852  95.700058
 9.830000  0.082901  718.150857  95.712987
 9.840000  0.085915  718.260681  95.727624
 9.850000  0.084952  718.373156  95.742614
 9.860000  0.081836  718.480361  95.756902
 9.870000  0.081252  718.582826  95.770558
 9.880000  0.081562  718.684948  95.784169
 9.890000  0.075896  718.780583  95.796915
 9.900000  0.046928  718.841932  95.805091
 9.910000 -0.012993  718.860200  95.807526
 9.920000 -0.059688  718.888951  95.811358
 9.930000 -0.071577  718.955873  95.820277
 9.940000 -0.076605  719.040560  95.831564
 9.950000 -0.076213  719.130526  95.843554
 9.960000 -0.067073  719.209940  95.854138
 9.970000 -0.052227  719.265619  95.861559
 9.980000 -0.034628  719.295873  95.865591
 9.990000 -0.014206  719.306667  95.867030
 10.000000  0.016573  719.310338  95.867519
 10.010000  0.047311  719.329701  95.870099
 10.020000  0.061364  719.375959  95.876265
 10.030000  0.070418  719.443177  95.885223
 10.040000  0.071633  719.520917  95.895584
 10.050000  0.053760  719.582720  95.903821
 10.060000  0.010897  719.605902  95.906911
 10.070000 -0.046918  719.623777  95.909293
 10.080000 -0.068159  719.676531  95.916324
 10.090000 -0.065614  719.745494  95.925515
 10.100000 -0.062271  719.808542  95.933918
 10.110000 -0.051535  719.858881  95.940627
 10.120000 -0.039300  719.891244  95.944940
 10.130000 -0.028370  719.909345  95.947353
 10.140000 -0.026317  719.920883  95.948890
 10.150000 -0.027054  719.931859  95.950353
 10.160000 -0.024182  719.942003  95.951705
 10.170000 -0.010010  719.947281  95.952409
 10.180000  0.007194  719.948451  95.952565
 10.190000  0.017012  719.951080  95.952915
 10.200000  0.015320  719.955118  95.953453
 10.210000  0.005898  719.957195  95.953730
 10.220000 -0.010411  719.958298  95.953877
 10.230000 -0.035671  719.968936  95.955295
 10.240000 -0.057907  720.004576  95.960045
 10.250000 -0.073596  720.072144  95.969050
 10.260000 -0.084497  720.168886  95.981944
 10.270000 -0.083874  720.278098  95.996499
 10.280000 -0.070605  720.370709  96.008842
 10.290000 -0.040440  720.421718  96.015640
 10.300000 -0.010728  720.435205  96.017438
 10.310000  0.006578  720.436426  96.017600
 10.320000  0.034382  720.445867  96.018859
 10.330000  0.067312  720.489884  96.024725
 10.340000  0.084082  720.579265  96.036638
 10.350000  0.101266  720.712747  96.054428
 10.360000  0.120856  720.904295  96.079957
 10.370000  0.130641  721.148329  96.112481
 10.380000  0.136898  721.424222  96.149251
 10.390000  0.139211  721.717933  96.188396
 10.400000  0.138417  722.014867  96.227970
 10.410000  0.136200  722.305411  96.266693
 10.420000  0.133451  722.585553  96.304030
 10.430000  0.130092  722.853163  96.339696
 10.440000  0.126450  723.106753  96.373494
 10.450000  0.121351  723.343410  96.405035
 10.460000  0.114293  723.557517  96.433570
 10.470000  0.106492  723.745540  96.458629
 10.480000  0.094254  723.901363  96.479397
 10.490000  0.074153  724.012176  96.494166
 10.500000  0.049428  724.073365  96.502321
 10.510000  0.015281  724.093988  96.505069
 10.520000 -0.007442  724.096213  96.505366
 10.530000 -0.008802  724.097237  96.505502
 10.540000  0.001680  724.097856  96.505585
 10.550000  0.021229  724.101350  96.506050
 10.560000  0.035189  724.114363  96.507785
 10.570000  0.041257  724.137018  96.510804
 10.580000  0.033147  724.158598  96.513680
 10.590000  0.006962  724.167437  96.514858
 10.600000 -0.036100  724.177851  96.516246
 10.610000 -0.075086  724.231330  96.523374
 10.620000 -0.091060  724.338655  96.537678
 10.630000 -0.091277  724.466734  96.554748
 10.640000 -0.069509  724.568151  96.568264
 10.650000 -0.020820  724.608716  96.573671
 10.660000  0.023349  724.616257  96.574676
 10.670000  0.056559  724.645104  96.578520
 10.680000  0.084397  724.724631  96.589120
 10.690000  0.097889  724.853341  96.606274
 10.700000  0.100857  725.005544  96.626559
 10.710000  0.103584  725.166588  96.648022
 10.720000  0.104449  725.333313  96.670243
 10.730000  0.104519  725.501537  96.692663
 10.740000  0.108515  725.676433  96.715973
 10.750000  0.120658  725.879329  96.743014
 10.760000  0.131881  726.125503  96.775824
 10.770000  0.138245  726.406759  96.813309
 10.780000  0.135619  726.695720  96.851820
 10.790000  0.124257  726.956390  96.886562
 10.800000  0.093165  727.142225  96.911329
 10.810000  0.047515  727.226495  96.922560
 10.820000  0.020304  727.247066  96.925302
 10.830000  0.010027  727.251018  96.925829
 10.840000  0.006750  727.252143  96.925979
 10.850000  0.009727  727.253223  96.926123
 10.860000  0.012603  727.255176  96.926383
 10.870000  0.009687  727.257123  96.926642
 10.880000  0.000687  727.257850  96.926739
 10.890000 -0.009003  727.258478  96.926823
 10.900000 -0.023283  727.263279  96.927463
 10.910000 -0.042323  727.281257  96.929859
 10.920000 -0.061767  727.324453  96.935616
 10.930000 -0.079688  727.402775  96.946054
 10.940000 -0.091771  727.516591  96.961223
 10.950000 -0.096485  727.653206  96.979431
 10.960000 -0.097365  727.797973  96.998725
 10.970000 -0.089697  727.933003  97.016722
 10.980000 -0.072539  728.035534  97.030387
 10.990000 -0.045356  728.091925  97.037902
 11.000000 -0.017511  728.110138  97.040330
 11.010000 -0.002086  728.112534  97.040649
 11.020000  0.009902  728.113323  97.040754
 11.030000  0.025561  728.119112  97.041526
 11.040000  0.039155  728.135958  97.043771
 11.050000  0.053926  728.170176  97.048331
 11.060000  0.059407  728.219773  97.054942
 11.070000  0.055402  728.270613  97.061717
 11.080000  0.042077  728.307903  97.066687
 11.090000  0.021109  728.324978  97.068963
 11.100000 -0.012414  728.329598  97.069579
 11.110000 -0.044246  728.345869  97.071747
 11.120000 -0.064593  728.393099  97.078042
 11.130000 -0.080957  728.475744  97.089057
 11.140000 -0.088781  728.586971  97.103881
 11.150000 -0.087822  728.707125  97.119894
 11.160000 -0.079580  728.815344  97.134317
 11.170000 -0.062396  728.894135  97.144818
 11.180000 -0.046379  728.940705  97.151025
 11.190000 -0.034418  728.966405  97.154450
 11.200000 -0.025453  728.980523  97.156332
 11.210000 -0.020449  728.988737  97.157427
 11.220000 -0.018386  728.994563  97.158203
 11.230000 -0.017565  728.999545  97.158867
 11.240000 -0.017831  729.004372  97.159511
 11.250000 -0.022355  729.010672  97.160350
 11.260000 -0.033666  729.023255  97.162027
 11.270000 -0.049914  729.051183  97.165749
 11.280000 -0.062258  729.100243  97.172288
 11.290000 -0.069442  729.167262  97.181220
 11.300000 -0.069844  729.242001  97.191181
 11.310000 -0.064946  729.312086  97.200522
 11.320000 -0.052618  729.365917  97.207696
 11.330000 -0.033662  729.395979  97.211703
 11.340000 -0.013581  729.406131  97.213056
 11.350000  0.013666  729.408991  97.213437
 11.360000  0.045012  729.426041  97.215709
 11.370000  0.070895  729.480376  97.222951
 11.380000  0.098806  729.594320  97.238137
 11.390000  0.125912  729.791689  97.264442
 11.400000  0.139218  730.063170  97.300624
 11.410000  0.144734  730.373899  97.342037
 11.420000  0.148210  730.704542  97.386104
 11.430000  0.149477  731.045937  97.431604
 11.440000  0.148157  731.387210  97.477088
 11.450000  0.146733  731.722221  97.521737
 11.460000  0.143494  732.046754  97.564990
 11.470000  0.134422  732.344618  97.604689
 11.480000  0.113521  732.583129  97.636476
 11.490000  0.082438  732.734782  97.656688
 11.500000  0.052417  732.808314  97.666488
 11.510000  0.021321  732.832985  97.669777
 11.520000 -0.009499  732.837183  97.670336
 11.530000 -0.034874  732.847248  97.671677
 11.540000 -0.051111  732.876745  97.675609
 11.550000 -0.052900  732.918434  97.681165
 11.560000 -0.049083  732.958556  97.686512
 11.570000 -0.047323  732.994372  97.691286
 11.580000 -0.050151  733.031005  97.696168
 11.590000 -0.057206  733.075598  97.702111
 11.600000 -0.065753  733.134123  97.709911
 11.610000 -0.074055  733.209687  97.719982
 11.620000 -0.081040  733.302542  97.732358
 11.630000 -0.089112  733.414326  97.747256
 11.640000 -0.098524  733.550300  97.765378
 11.650000 -0.107052  733.713388  97.787114
 11.660000 -0.113651  733.901204  97.812146
 11.670000 -0.115967  734.104339  97.839219
 11.680000 -0.106358  734.295112  97.864644
 11.690000 -0.075269  734.425920  97.882078
 11.700000 -0.025256  734.474485  97.888551
 11.710000  0.010780  734.480295  97.889325
 11.720000  0.029030  734.487684  97.890310
 11.730000  0.047112  734.511278  97.893454
 11.740000  0.062526  734.558500  97.899748
 11.750000  0.071889  734.628441  97.909069
 11.760000  0.082434  734.720615  97.921354
 11.770000  0.092697  734.839177  97.937156
 11.780000  0.097840  734.979137  97.955809
 11.790000  0.099636  735.129379  97.975833
 11.800000  0.099152  735.281612  97.996122
 11.810000  0.096247  735.428731  98.015730
 11.820000  0.091521  735.564639  98.033843
 11.830000  0.080322  735.678884  98.049069
 11.840000  0.061995  735.758204  98.059641
 11.850000  0.029529  735.794534  98.064483
 11.860000 -0.004335  735.801397  98.065398
 11.870000 -0.029701  735.808339  98.066323
 11.880000 -0.040986  735.828078  98.068954
 11.890000 -0.044321  735.856156  98.072696
 11.900000 -0.041446  735.884526  98.076477
 11.910000 -0.035296  735.907359  98.079520
 11.920000 -0.027919  735.922963  98.081600
 11.930000 -0.021390  735.932494  98.082870
 11.940000 -0.017124  735.938279  98.083641
 11.950000 -0.016414  735.942614  98.084219
 11.960000 -0.017283  735.946991  98.084802
 11.970000 -0.023850  735.953675  98.085693
 11.980000 -0.033474  735.966691  98.087427
 11.990000 -0.046774  735.992181  98.090825
 12.000000 -0.062221  736.038866  98.097047
 12.010000 -0.073011  736.109766  98.106496
 12.020000 -0.083064  736.203998  98.119055
 12.030000 -0.089231  736.318504  98.134316
 12.040000 -0.088250  736.439856  98.150490
 12.050000 -0.080055  736.549240  98.165068
 12.060000 -0.055325  736.622201  98.174792
 12.070000 -0.020445  736.649005  98.178364
 12.080000  0.014922  736.653941  98.179022
 12.090000  0.035000  736.665095  98.180509
 12.100000  0.036406  736.684745  98.183128
 12.110000  0.035032  736.704413  98.185749
 12.120000  0.029551  736.720596  98.187906
 12.130000  0.023284  736.731501  98.189359
 12.140000  0.019013  736.738463  98.190287
 12.150000  0.020273  736.744415  98.191080
 12.160000  0.025834  736.752724  98.192188
 12.170000  0.030833  736.765191  98.193849
 12.180000  0.033045  736.780930  98.195947
 12.190000  0.027401  736.795128  98.197839
 12.200000  0.014251  736.802478  98.198819
 12.210000 -0.006629  736.804381  98.199072
 12.220000 -0.025558  736.809752  98.199788
 12.230000 -0.035213  736.824339  98.201732
 12.240000 -0.039577  736.845961  98.204614
 12.250000 -0.036444  736.868262  98.207586
 12.260000 -0.023373  736.882705  98.209511
 12.270000 -0.004926  736.887101  98.210097
 12.280000  0.014526  736.888913  98.210338
 12.290000  0.026132  736.895800  98.211256
 12.300000  0.025510  736.906076  98.212626
 12.310000  0.018759  736.913802  98.213656
 12.320000  0.003340  736.916599  98.214028
 12.330000 -0.010663  736.917561  98.214157
 12.340000 -0.017131  736.920698  98.214575
 12.350000 -0.016666  736.925099  98.215161
 12.360000 -0.011958  736.928341  98.215593
 12.370000 -0.005687  736.929692  98.215773
 12.380000  0.003624  736.930042  98.215820
 12.390000  0.012764  736.931399  98.216001
 12.400000  0.017291  736.934957  98.216475
 12.410000  0.018421  736.939875  98.217131
 12.420000  0.014983  736.944220  98.217710
 12.430000  0.008888  736.946558  98.218021
 12.440000  0.003527  736.947262  98.218115
 12.450000  0.001717  736.947381  98.218131
 12.460000  0.002535  736.947453  98.218141
 12.470000  0.004968  736.947693  98.218172
 12.480000  0.007523  736.948319  98.218256
 12.490000  0.009181  736.949405  98.218401
 12.500000  0.014125  736.951591  98.218692
 12.510000  0.023311  736.957315  98.219455
 12.520000  0.034443  736.970642  98.221231
 12.530000  0.046157  736.996197  98.224637
 12.540000  0.057798  737.038349  98.230255
 12.550000  0.064440  737.096081  98.237949
 12.560000  0.065172  737.160800  98.246575
 12.570000  0.061917  737.223063  98.254873
 12.580000  0.046527  737.269279  98.261032
 12.590000  0.018087  737.288478  98.263591
 12.600000 -0.017621  737.293391  98.264246
 12.610000 -0.045395  737.311661  98.266681
 12.620000 -0.060987  737.356195  98.272616
 12.630000 -0.069933  737.422533  98.281458
 12.640000 -0.071224  737.499299  98.291689
 12.650000 -0.063529  737.569480  98.301042
 12.660000 -0.050413  737.620157  98.307796
 12.670000 -0.034024  737.648658  98.311595
 12.680000 -0.026499  737.662987  98.313505
 12.690000 -0.027995  737.674436  98.315031
 12.700000 -0.033498  737.689120  98.316988
 12.710000 -0.036413  737.707982  98.319501
 12.720000 -0.033497  737.726843  98.322015
 12.730000 -0.022067  737.739240  98.323668
 12.740000 -0.003275  737.743075  98.324179
 12.750000  0.009695  737.743882  98.324286
 12.760000  0.016761  737.746770  98.324671
 12.770000  0.024012  737.753378  98.325552
 12.780000  0.026464  737.763216  98.326863
 12.790000  0.023528  737.772877  98.328150
 12.800000  0.008634  737.777716  98.328795
 12.810000 -0.012630  737.779520  98.329036
 12.820000 -0.023961  737.785172  98.329789
 12.830000 -0.025994  737.794802  98.331073
 12.840000 -0.022155  737.803790  98.332270
 12.850000 -0.017093  737.809823  98.333075
 12.860000 -0.014740  737.813748  98.333598
 12.870000 -0.016987  737.817645  98.334117
 12.880000 -0.024954  737.824666  98.335053
 12.890000 -0.038491  737.840878  98.337214
 12.900000 -0.049691  737.871318  98.341270
 12.910000 -0.052705  737.911745  98.346658
 12.920000 -0.050293  737.952635  98.352108
 12.930000 -0.040385  737.984690  98.356380
 12.940000 -0.029732  738.004067  98.358963
 12.950000 -0.022572  738.014803  98.360394
 12.960000 -0.019428  738.021637  98.361304
 12.970000 -0.018167  738.027088  98.362031
 12.980000 -0.012793  738.030892  98.362538
 12.990000  0.001975  738.032183  98.362710
 13.000000  0.016445  738.034296  98.362992
 13.010000  0.022875  738.040412  98.363807
 13.020000  0.022821  738.048456  98.364879
 13.030000  0.016397  738.054541  98.365690
 13.040000  0.006449  738.056933  98.366009
 13.050000 -0.005632  738.057497  98.366084
 13.060000 -0.017646  738.060141  98.366436
 13.070000 -0.030560  738.069736  98.367715
 13.080000 -0.042885  738.091101  98.370563
 13.090000 -0.056468  738.129840  98.375725
 13.100000 -0.070469  738.192668  98.384099
 13.110000 -0.078132  738.277962  98.395467
 13.120000 -0.083024  738.378105  98.408813
 13.130000 -0.084628  738.486394  98.423246
 13.140000 -0.083050  738.594716  98.437683
 13.150000 -0.076015  738.692379  98.450699
 13.160000 -0.057832  738.762668  98.460067
 13.170000 -0.029992  738.795367  98.464425
 13.180000 -0.008610  738.802869  98.465425
 13.190000 -0.000126  738.803440  98.465501
 13.200000  0.001821  738.803466  98.465504
 13.210000  0.003784  738.803602  98.465522
 13.220000  0.003378  738.803800  98.465549
 13.230000 -0.002952  738.803955  98.465570
 13.240000 -0.014513  738.805645  98.465795
 13.250000 -0.032915  738.815615  98.467124
 13.260000 -0.048143  738.841821  98.470616
 13.270000 -0.052995  738.881318  98.475880
 13.280000 -0.055407  738.926610  98.481917
 13.290000 -0.054383  738.973050  98.488106
 13.300000 -0.052223  739.016849  98.493943
 13.310000 -0.048935  739.056312  98.499203
 13.320000 -0.045367  739.090620  98.503775
 13.330000 -0.040549  739.119145  98.507577
 13.340000 -0.032255  739.139829  98.510334
 13.350000 -0.019208  739.150688  98.511781
 13.360000 -0.007287  739.153940  98.512214
 13.370000  0.004643  739.154515  98.512291
 13.380000  0.020577  739.157943  98.512748
 13.390000  0.036611  739.171533  98.514559
 13.400000  0.045979  739.198149  98.518106
 13.410000  0.053566  739.236545  98.523224
 13.420000  0.056182  739.282971  98.529411
 13.430000  0.054805  739.330433  98.535737
 13.440000  0.042494  739.367488  98.540675
 13.450000  0.016483  739.383494  98.542809
 13.460000 -0.020475  739.388817  98.543518
 13.470000 -0.050936  739.412037  98.546613
 13.480000 -0.062358  739.461987  98.553270
 13.490000 -0.056716  739.516730  98.560566
 13.500000 -0.042837  739.555652  98.565753
 13.510000 -0.021030  739.573198  98.568092
 13.520000  0.006513  739.576933  98.568590
 13.530000  0.025425  739.582240  98.569297
 13.540000  0.034998  739.596658  98.571219
 13.550000  0.040667  739.618837  98.574175
 13.560000  0.043056  739.645863  98.577776
 13.570000  0.043393  739.674654  98.581614
 13.580000  0.044042  739.704107  98.585539
 13.590000  0.045052  739.734690  98.589615
 13.600000  0.046784  739.767192  98.593947
 13.610000  0.050351  739.803589  98.598798
 13.620000  0.056619  739.847822  98.604693
 13.630000  0.062837  739.902943  98.612039
 13.640000  0.070988  739.972191  98.621268
 13.650000  0.079276  740.059440  98.632897
 13.660000  0.084052  740.162294  98.646605
 13.670000  0.087591  740.275837  98.661738
 13.680000  0.091235  740.399082  98.678163
 13.690000  0.093588  740.530699  98.695705
 13.700000  0.095563  740.668545  98.714076
 13.710000  0.097513  740.812170  98.733218
 13.720000  0.097465  740.958624  98.752737
 13.730000  0.096269  741.103220  98.772009
 13.740000  0.093356  741.241775  98.790475
 13.750000  0.088839  741.369734  98.807529
 13.760000  0.080958  741.481041  98.822364
 13.770000  0.065469  741.564564  98.833495
 13.780000  0.046242  741.614063  98.840092
 13.790000  0.027171  741.636227  98.843046
 13.800000  0.008422  741.642461  98.843877
 13.810000 -0.002392  741.643052  98.843956
 13.820000 -0.005983  741.643372  98.843998
 13.830000 -0.006678  741.643991  98.844081
 13.840000 -0.006953  741.644707  98.844176
 13.850000 -0.007715  741.645538  98.844287
 13.860000 -0.012227  741.647149  98.844502
 13.870000 -0.021043  741.651712  98.845110
 13.880000 -0.028425  741.661350  98.846394
 13.890000 -0.033557  741.676251  98.848381
 13.900000 -0.037953  741.696026  98.851016
 13.910000 -0.037887  741.718184  98.853969
 13.920000 -0.033274  741.737774  98.856580
 13.930000 -0.024755  741.751026  98.858346
 13.940000 -0.017502  741.758107  98.859290
 13.950000 -0.015946  741.762427  98.859866
 13.960000 -0.020242  741.767543  98.860548
 13.970000 -0.024483  741.775318  98.861584
 13.980000 -0.024827  741.784686  98.862832
 13.990000 -0.019703  741.792426  98.863864
 14.000000 -0.006814  741.795775  98.864310
 14.010000  0.010481  741.796979  98.864471
 14.020000  0.029030  741.804318  98.865449
 14.030000  0.041091  741.823821  98.868048
 14.040000  0.042605  741.850815  98.871646
 14.050000  0.036885  741.875283  98.874907
 14.060000  0.017708  741.888181  98.876626
 14.070000 -0.011386  741.891596  98.877081
 14.080000 -0.033148  741.901061  98.878342
 14.090000 -0.043513  741.924115  98.881415
 14.100000 -0.043628  741.953369  98.885314
 14.110000 -0.036104  741.978077  98.888607
 14.120000 -0.016462  741.990208  98.890224
 14.130000  0.009240  741.992953  98.890590
 14.140000  0.021316  741.997112  98.891144
 14.150000  0.023547  742.004885  98.892180
 14.160000  0.025520  742.014175  98.893418
 14.170000  0.027075  742.024841  98.894839
 14.180000  0.030976  742.037881  98.896577
 14.190000  0.038151  742.056488  98.899057
 14.200000  0.042442  742.081581  98.902402
 14.210000  0.043228  742.109857  98.906170
 14.220000  0.039721  742.136411  98.909709
 14.230000  0.034238  742.157599  98.912533
 14.240000  0.027558  742.172482  98.914517
 14.250000  0.018914  742.181090  98.915664
 14.260000  0.012040  742.184964  98.916180
 14.270000  0.003448  742.186172  98.916341
 14.280000 -0.006412  742.186580  98.916396
 14.290000 -0.015022  742.188636  98.916670
 14.300000 -0.019579  742.193328  98.917295
 14.310000 -0.020039  742.199376  98.918101
 14.320000 -0.015969  742.204435  98.918775
 14.330000 -0.006145  742.206690  98.919076
 14.340000  0.005391  742.207205  98.919144
 14.350000  0.016551  742.209540  98.919456
 14.360000  0.022708  742.215623  98.920266
 14.370000  0.021882  742.223285  98.921288
 14.380000  0.017235  742.229263  98.922084
 14.390000  0.005640  742.231797  98.922422
 14.400000 -0.007091  742.232429  98.922506
 14.410000 -0.017984  742.235308  98.922890
 14.420000 -0.023790  742.242161  98.923803
 14.430000 -0.025210  742.251418  98.925037
 14.440000 -0.026648  742.261786  98.926419
 14.450000 -0.028338  742.273445  98.927973
 14.460000 -0.028174  742.285747  98.929612
 14.470000 -0.026024  742.297081  98.931123
 14.480000 -0.020672  742.305592  98.932257
 14.490000 -0.009945  742.309646  98.932798
 14.500000  0.006250  742.310709  98.932939
 14.510000  0.029629  742.317774  98.933881
 14.520000  0.056673  742.349284  98.938080
 14.530000  0.077549  742.420366  98.947554
 14.540000  0.089718  742.528718  98.961995
 14.550000  0.094413  742.659416  98.979414
 14.560000  0.093278  742.795132  98.997502
 14.570000  0.086500  742.919819  99.014119
 14.580000  0.073369  743.018942  99.027330
 14.590000  0.059995  743.088149  99.036554
 14.600000  0.049275  743.134588  99.042743
 14.610000  0.033886  743.162143  99.046416
 14.620000  0.016775  743.173158  99.047884
 14.630000  0.001818  743.175352  99.048176
 14.640000 -0.014966  743.177103  99.048410
 14.650000 -0.031204  743.186331  99.049639
 14.660000 -0.044585  743.209149  99.052680
 14.670000 -0.055047  743.247812  99.057833
 14.680000 -0.058154  743.297216  99.064418
 14.690000 -0.055542  743.347041  99.071058
 14.700000 -0.049895  743.389990  99.076782
 14.710000 -0.041164  743.422227  99.081079
 14.720000 -0.032912  743.443628  99.083931
 14.730000 -0.024477  743.456590  99.085659
 14.740000 -0.021007  743.464606  99.086727
 14.750000 -0.022879  743.472040  99.087718
 14.760000 -0.024649  743.480754  99.088879
 14.770000 -0.024179  743.489940  99.090103
 14.780000 -0.025055  743.499281  99.091348
 14.790000 -0.025397  743.509088  99.092655
 14.800000 -0.025412  743.519033  99.093981
 14.810000 -0.027097  743.529666  99.095398
 14.820000 -0.032004  743.543215  99.097204
 14.830000 -0.043210  743.565493  99.100173
 14.840000 -0.056534  743.604504  99.105372
 14.850000 -0.066572  743.663275  99.113205
 14.860000 -0.075588  743.741443  99.123623
 14.870000 -0.081555  743.836710  99.136320
 14.880000 -0.084042  743.942375  99.150403
 14.890000 -0.085410  744.052999  99.165146
 14.900000 -0.082314  744.161409  99.179595
 14.910000 -0.071976  744.253527  99.191872
 14.920000 -0.045650  744.309498  99.199332
 14.930000 -0.019478  744.328477  99.201861
 14.940000 -0.017761  744.333831  99.202575
 14.950000 -0.023825  744.340634  99.203481
 14.960000 -0.025652  744.350078  99.204740
 14.970000 -0.023708  744.359478  99.205993
 14.980000 -0.017691  744.366220  99.206891
 14.990000 -0.001471  744.368648  99.207215
 15.000000  0.021013  744.372067  99.207671
 15.010000  0.039924  744.387749  99.209761
 15.020000  0.049089  744.418596  99.213872
 15.030000  0.049466  744.456016  99.218859
 15.040000  0.045332  744.490702  99.223482
 15.050000  0.041576  744.519853  99.227367
 15.060000  0.040326  744.545701  99.230812
 15.070000  0.041565  744.571541  99.234256
 15.080000  0.039664  744.596973  99.237646
 15.090000  0.037418  744.619882  99.240699
 15.100000  0.029776  744.637501  99.243047
 15.110000  0.018249  744.646898  99.244299
 15.120000 -0.004445  744.649616  99.244662
 15.130000 -0.036623  744.660102  99.246059
 15.140000 -0.073712  744.712300  99.253016
 15.150000 -0.092072  744.819479  99.267300
 15.160000 -0.095767  744.955456  99.285423
 15.170000 -0.086051  745.083171  99.302444
 15.180000 -0.069416  745.177348  99.314996
 15.190000 -0.040075  745.226847  99.321593
 15.200000 -0.005432  745.239449  99.323273
 15.210000  0.023696  745.244003  99.323880
 15.220000  0.038464  745.259728  99.325975
 15.230000  0.030842  745.278456  99.328472
 15.240000  0.017542  745.288156  99.329764
 15.250000  0.007287  745.290936  99.330135
 15.260000  0.002990  745.291414  99.330199
 15.270000  0.005012  745.291677  99.330234
 15.280000  0.012653  745.293104  99.330424
 15.290000  0.020752  745.297655  99.331030
 15.300000  0.020171  745.304108  99.331890
 15.310000  0.018305  745.309825  99.332652
 15.320000  0.018375  745.315008  99.333343
 15.330000  0.019450  745.320524  99.334078
 15.340000  0.024676  745.328130  99.335092
 15.350000  0.028539  745.339097  99.336554
 15.360000  0.028518  745.351639  99.338225
 15.370000  0.027248  745.363626  99.339823
 15.380000  0.026683  745.374832  99.341316
 15.390000  0.025947  745.385505  99.342739
 15.400000  0.025791  745.395817  99.344113
 15.410000  0.027247  745.406662  99.345558
 15.420000  0.032535  745.420538  99.347408
 15.430000  0.037086  745.439290  99.349907
 15.440000  0.041525  745.463172  99.353090
 15.450000  0.042680  745.490493  99.356731
 15.460000  0.038830  745.516145  99.360150
 15.470000  0.024601  745.532425  99.362320
 15.480000  0.006766  745.537441  99.362988
 15.490000 -0.004970  745.537984  99.363061
 15.500000 -0.017755  745.540603  99.363410
 15.510000 -0.030953  745.550413  99.364717
 15.520000 -0.036728  745.568188  99.367086
 15.530000 -0.038509  745.590007  99.369994
 15.540000 -0.034154  745.610420  99.372715
 15.550000 -0.024930  745.624196  99.374551
 15.560000 -0.006538  745.629314  99.375233
 15.570000  0.015275  745.631441  99.375516
 15.580000  0.025257  745.638154  99.376411
 15.590000  0.026755  745.648584  99.377801
 15.600000  0.028309  745.660274  99.379359
 15.610000  0.033407  745.675047  99.381328
 15.620000  0.036877  745.694124  99.383870
 15.630000  0.036842  745.715059  99.386661
 15.640000  0.034523  745.734700  99.389278
 15.650000  0.031451  745.751505  99.391518
 15.660000  0.028948  745.765582  99.393394
 15.670000  0.028410  745.778257  99.395084
 15.680000  0.025373  745.789436  99.396573
 15.690000  0.018424  745.797011  99.397583
 15.700000  0.005793  745.799885  99.397966
 15.710000 -0.014192  745.801696  99.398207
 15.720000 -0.025784  745.808370  99.399097
 15.730000 -0.030649  745.820730  99.400744
 15.740000 -0.039345  745.839895  99.403298
 15.750000 -0.052199  745.872816  99.407686
 15.760000 -0.065904  745.927274  99.414944
 15.770000 -0.074432  746.003424  99.425093
 15.780000 -0.076837  746.091598  99.436845
 15.790000 -0.079133  746.185335  99.449338
 15.800000 -0.078788  746.281410  99.462142
 15.810000 -0.074412  746.371899  99.474202
 15.820000 -0.064390  746.446506  99.484146
 15.830000 -0.048967  746.496925  99.490865
 15.840000 -0.028726  746.521757  99.494175
 15.850000 -0.013857  746.529594  99.495219
 15.860000 -0.008062  746.531574  99.495483
 15.870000 -0.003368  746.532162  99.495562
 15.880000  0.001852  746.532276  99.495577
 15.890000  0.007503  746.532736  99.495638
 15.900000  0.014884  746.534877  99.495924
 15.910000  0.028609  746.542890  99.496991
 15.920000  0.040464  746.561812  99.499513
 15.930000  0.046774  746.591283  99.503441
 15.940000  0.043858  746.622959  99.507663
 15.950000  0.029531  746.644498  99.510534
 15.960000  0.010041  746.651994  99.511533
 15.970000 -0.015778  746.654689  99.511892
 15.980000 -0.027808  746.662565  99.512941
 15.990000 -0.031281  746.676062  99.514740
 16.000000 -0.037219  746.694274  99.517167
 16.010000 -0.038299  746.716248  99.520096
 16.020000 -0.036966  746.738078  99.523005
 16.030000 -0.032994  746.756993  99.525527
 16.040000 -0.024254  746.769913  99.527248
 16.050000 -0.004160  746.774579  99.527870
 16.060000  0.021701  746.778340  99.528372
 16.070000  0.035201  746.791516  99.530128
 16.080000  0.034429  746.810195  99.532617
 16.090000  0.031704  746.827072  99.534866
 16.100000  0.027831  746.840784  99.536694
 16.110000  0.023912  746.851158  99.538076
 16.120000  0.017569  746.857942  99.538981
 16.130000  0.013139  746.861650  99.539475
 16.140000  0.009936  746.863741  99.539754
 16.150000  0.005807  746.864761  99.539890
 16.160000  0.001675  746.865043  99.539927
 16.170000 -0.002239  746.865103  99.539935
 16.180000 -0.002576  746.865193  99.539947
 16.190000  0.001937  746.865273  99.539958
 16.200000  0.006782  746.865656  99.540009
 16.210000  0.013933  746.867506  99.540255
 16.220000  0.020654  746.872289  99.540893
 16.230000  0.028316  746.881753  99.542154
 16.240000  0.035288  746.897525  99.544256
 16.250000  0.041549  746.920420  99.547308
 16.260000  0.034540  746.942913  99.550305
 16.270000  0.015983  746.954073  99.551793
 16.280000  0.001100  746.956051  99.552056
 16.290000 -0.007219  746.956461  99.552111
 16.300000 -0.008280  746.957391  99.552235
 16.310000 -0.008185  746.958435  99.552374
 16.320000 -0.012390  746.960134  99.552601
 16.330000 -0.018988  746.964095  99.553128
 16.340000 -0.023839  746.971251  99.554082
 16.350000 -0.027233  746.981344  99.555427
 16.360000 -0.028608  746.993364  99.557029
 16.370000 -0.028465  747.005912  99.558702
 16.380000 -0.028215  747.018288  99.560351
 16.390000 -0.029618  747.031181  99.562069
 16.400000 -0.029771  747.044768  99.563880
 16.410000 -0.027544  747.057442  99.565569
 16.420000 -0.024912  747.068069  99.566986
 16.430000 -0.022163  747.076636  99.568127
 16.440000 -0.015058  747.082167  99.568865
 16.450000 -0.007444  747.084341  99.569154
 16.460000 -0.002405  747.084812  99.569217
 16.470000  0.001374  747.084872  99.569225
 16.480000  0.003856  747.085001  99.569242
 16.490000  0.007829  747.085588  99.569321
 16.500000  0.012174  747.087202  99.569536
 16.510000  0.019348  747.091228  99.570072
 16.520000  0.031686  747.101848  99.571488
 16.530000  0.042072  747.123221  99.574336
 16.540000  0.045636  747.152906  99.578293
 16.550000  0.047129  747.186065  99.582712
 16.560000  0.045164  747.218894  99.587087
 16.570000  0.037205  747.245275  99.590603
 16.580000  0.022947  747.259997  99.592565
 16.590000 -0.000821  747.264060  99.593107
 16.600000 -0.027545  747.269911  99.593887
 16.610000 -0.034737  747.285053  99.595905
 16.620000 -0.033024  747.302753  99.598264
 16.630000 -0.030198  747.318182  99.600320
 16.640000 -0.026666  747.330686  99.601987
 16.650000 -0.021865  747.339849  99.603208
 16.660000 -0.020276  747.346700  99.604121
 16.670000 -0.022194  747.353663  99.605049
 16.680000 -0.025498  747.362467  99.606222
 16.690000 -0.027211  747.373181  99.607650
 16.700000 -0.028858  747.385302  99.609266
 16.710000 -0.030975  747.399110  99.611106
 16.720000 -0.033589  747.415195  99.613250
 16.730000 -0.037941  747.434979  99.615886
 16.740000 -0.045983  747.462361  99.619536
 16.750000 -0.053944  747.501073  99.624695
 16.760000 -0.056798  747.548349  99.630996
 16.770000 -0.056506  747.597806  99.637588
 16.780000 -0.050674  747.642191  99.643503
 16.790000 -0.034924  747.671373  99.647392
 16.800000 -0.010408  747.681606  99.648756
 16.810000  0.008216  747.682960  99.648937
 16.820000  0.017121  747.685739  99.649307
 16.830000  0.022543  747.691913  99.650130
 16.840000  0.030017  747.702771  99.651577
 16.850000  0.040325  747.722242  99.654172
 16.860000  0.052287  747.755835  99.658649
 16.870000  0.062123  747.806634  99.665420
 16.880000  0.070548  747.874716  99.674493
 16.890000  0.071431  747.952377  99.684844
 16.900000  0.062725  748.022004  99.694123
 16.910000  0.040235  748.064791  99.699826
 16.920000  0.009918  748.078022  99.701589
 16.930000 -0.006344  748.079090  99.701732
 16.940000 -0.011328  748.080388  99.701905
 16.950000 -0.017093  748.083628  99.702336
 16.960000 -0.024794  748.090616  99.703268
 16.970000 -0.034514  748.104530  99.705122
 16.980000 -0.043275  748.128137  99.708268
 16.990000 -0.048556  748.160731  99.712612
 17.000000 -0.051560  748.199379  99.717763
 17.010000 -0.054185  748.242482  99.723508
 17.020000 -0.059125  748.292037  99.730113
 17.030000 -0.065875  748.352407  99.738158
 17.040000 -0.072932  748.426824  99.748077
 17.050000 -0.077307  748.513853  99.759675
 17.060000 -0.077095  748.605693  99.771916
 17.070000 -0.073109  748.692668  99.783507
 17.080000 -0.064288  748.765692  99.793240
 17.090000 -0.050807  748.817425  99.800135
 17.100000 -0.031250  748.844838  99.803788
 17.110000 -0.012931  748.853650  99.804963
 17.120000 -0.000523  748.854941  99.805135
 17.130000  0.011547  748.855970  99.805272
 17.140000  0.021784  748.860654  99.805896
 17.150000  0.024702  748.869011  99.807010
 17.160000  0.023216  748.877865  99.808190
 17.170000  0.019646  748.884992  99.809140
 17.180000  0.017535  748.890335  99.809852
 17.190000  0.015404  748.894532  99.810411
 17.200000  0.014990  748.898092  99.810886
 17.210000  0.015550  748.901686  99.811365
 17.220000  0.016188  748.905568  99.811882
 17.230000  0.017826  748.910035  99.812477
 17.240000  0.017070  748.914729  99.813103
 17.250000  0.016352  748.919034  99.813677
 17.260000  0.016501  748.923192  99.814231
 17.270000  0.018623  748.927962  99.814867
 17.280000  0.021666  748.934251  99.815705
 17.290000  0.024786  748.942601  99.816818
 17.300000  0.030079  748.954305  99.818378
 17.310000  0.033612  748.969980  99.820467
 17.320000  0.034336  748.987769  99.822838
 17.330000  0.032819  749.005151  99.825154
 17.340000  0.029881  749.020329  99.827177
 17.350000  0.027709  749.033125  99.828882
 17.360000  0.026390  749.044406  99.830386
 17.370000  0.026792  749.055303  99.831838
 17.380000  0.027238  749.066550  99.833337
 17.390000  0.027868  749.078250  99.834897
 17.400000  0.026922  749.089818  99.836438
 17.410000  0.024136  749.099892  99.837781
 17.420000  0.021570  749.107965  99.838857
 17.430000  0.019245  749.114403  99.839715
 17.440000  0.019790  749.120274  99.840498
 17.450000  0.024165  749.127791  99.841499
 17.460000  0.029612  749.139047  99.842999
 17.470000  0.031704  749.153547  99.844932
 17.480000  0.030460  749.168440  99.846917
 17.490000  0.027540  749.181432  99.848648
 17.500000  0.022158  749.191058  99.849931
 17.510000  0.013817  749.196312  99.850632
 17.520000  0.004732  749.197956  99.850851
 17.530000 -0.001359  749.198142  99.850876
 17.540000 -0.006395  749.198472  99.850919
 17.550000 -0.011856  749.199870  99.851106
 17.560000 -0.015045  749.202697  99.851483
 17.570000 -0.015937  749.206398  99.851976
 17.580000 -0.016703  749.210504  99.852523
 17.590000 -0.014346  749.214240  99.853021
 17.600000 -0.011694  749.216879  99.853373
 17.610000 -0.004890  749.218117  99.853538
 17.620000  0.001969  749.218331  99.853566
 17.630000  0.005149  749.218565  99.853597
 17.640000  0.009199  749.219421  99.853712
 17.650000  0.013140  749.221404  99.853976
 17.660000  0.018783  749.225452  99.854515
 17.670000  0.028060  749.234237  99.855686
 17.680000  0.034339  749.249389  99.857705
 17.690000  0.035796  749.268346  99.860232
 17.700000  0.034596  749.287440  99.862777
 17.710000  0.031365  749.304242  99.865016
 17.720000  0.026992  749.317435  99.866774
 17.730000  0.021011  749.326450  99.867976
 17.740000  0.018712  749.332549  99.868789
 17.750000  0.019252  749.338102  99.869529
 17.760000  0.017129  749.343218  99.870211
 17.770000  0.009467  749.346169  99.870604
 17.780000 -0.000547  749.346862  99.870696
 17.790000 -0.011093  749.347813  99.870823
 17.800000 -0.019438  749.351672  99.871337
 17.810000 -0.024690  749.359280  99.872351
 17.820000 -0.026705  749.369471  99.873710
 17.830000 -0.026219  749.380263  99.875148
 17.840000 -0.025534  749.390582  99.876523
 17.850000 -0.025887  749.400769  99.877881
 17.860000 -0.023692  749.410257  99.879146
 17.870000 -0.019533  749.417522  99.880114
 17.880000 -0.013483  749.421862  99.880692
 17.890000 -0.006433  749.423582  99.880921
 17.900000 -0.001683  749.423922  99.880967
 17.910000  0.001673  749.423966  99.880973
 17.920000  0.012346  749.425162  99.881132
 17.930000  0.021845  749.430013  99.881779
 17.940000  0.031068  749.441127  99.883260
 17.950000  0.036414  749.458780  99.885612
 17.960000  0.036411  749.479211  99.888335
 17.970000  0.030603  749.496641  99.890659
 17.980000  0.017381  749.506185  99.891930
 17.990000  0.005213  749.508722  99.892269
 18.000000 -0.002449  749.508977  99.892303
 18.010000 -0.011813  749.510099  99.892452
 18.020000 -0.019128  749.513993  99.892971
 18.030000 -0.022311  749.520647  99.893858
 18.040000 -0.020962  749.527868  99.894820
 18.050000 -0.015187  749.533031  99.895508
 18.060000 -0.003055  749.534880  99.895755
 18.070000  0.008725  749.535538  99.895843
 18.080000  0.015847  749.538060  99.896179
 18.090000  0.021021  749.543399  99.896890
 18.100000  0.027541  749.552647  99.898123
 18.110000  0.035599  749.568256  99.900203
 18.120000  0.041532  749.591310  99.903276
 18.130000  0.043869  749.619428  99.907023
 18.140000  0.043214  749.648643  99.910917
 18.150000  0.040814  749.675866  99.914545
 18.160000  0.037856  749.699742  99.917727
 18.170000  0.035556  749.720524  99.920497
 18.180000  0.034715  749.739550  99.923033
 18.190000  0.034947  749.758245  99.925524
 18.200000  0.034369  749.776755  99.927991
 18.210000  0.033873  749.794697  99.930383
 18.220000  0.033644  749.812258  99.932723
 18.230000  0.032587  749.829161  99.934976
 18.240000  0.030900  749.844700  99.937047
 18.250000  0.028432  749.858285  99.938857
 18.260000  0.024440  749.869116  99.940301
 18.270000  0.014793  749.875404  99.941139
 18.280000  0.000599  749.877093  99.941364
 18.290000 -0.015388  749.878920  99.941608
 18.300000 -0.031314  749.888300  99.942858
 18.310000 -0.041231  749.908953  99.945610
 18.320000 -0.044441  749.937269  99.949384
 18.330000 -0.042613  749.966476  99.953277
 18.340000 -0.034528  749.989652  99.956366
 18.350000 -0.021532  750.002409  99.958066
 18.360000 -0.005109  750.006183  99.958569
 18.370000  0.010649  750.007257  99.958712
 18.380000  0.018435  750.010750  99.959177
 18.390000  0.020876  750.016726  99.959974
 18.400000  0.020432  750.023300  99.960850
 18.410000  0.015679  750.028411  99.961531
 18.420000  0.009134  750.030948  99.961869
 18.430000  0.003008  750.031660  99.961964
 18.440000 -0.001522  750.031748  99.961976
 18.450000 -0.004473  750.031920  99.961999
 18.460000 -0.006759  750.032426  99.962066
 18.470000 -0.009082  750.033413  99.962198
 18.480000 -0.011517  750.035071  99.962419
 18.490000 -0.014720  750.037762  99.962778
 18.500000 -0.019135  750.042253  99.963376
 18.510000 -0.026202  750.050364  99.964457
 18.520000 -0.031586  750.063340  99.966186
 18.530000 -0.035242  750.080596  99.968486
 18.540000 -0.035995  750.100148  99.971092
 18.550000 -0.033677  750.118868  99.973587
 18.560000 -0.029106  750.134134  99.975622
 18.570000 -0.020803  750.143995  99.976936
 18.580000 -0.013259  750.148684  99.977561
 18.590000 -0.006094  750.150325  99.977780
 18.600000  0.000188  750.150611  99.977818
 18.610000  0.002685  750.150667  99.977825
 18.620000  0.003099  750.150797  99.977842
 18.630000  0.004328  750.151015  99.977872
 18.640000  0.006632  750.151498  99.977936
 18.650000  0.008957  750.152455  99.978063
 18.660000  0.009898  750.153828  99.978246
 18.670000  0.009175  750.155232  99.978433
 18.680000  0.008485  750.156435  99.978594
 18.690000  0.008129  750.157499  99.978736
 18.700000  0.008386  750.158550  99.978876
 18.710000  0.008696  750.159674  99.979026
 18.720000  0.008114  750.160764  99.979171
 18.730000  0.006871  750.161635  99.979287
 18.740000  0.003290  750.162082  99.979347
 18.750000 -0.001570  750.162185  99.979360
 18.760000 -0.006605  750.162540  99.979408
 18.770000 -0.012419  750.164064  99.979611
 18.780000 -0.017549  750.167625  99.980085
 18.790000 -0.020323  750.173180  99.980826
 18.800000 -0.020767  750.179685  99.981693
 18.810000 -0.020084  750.186115  99.982550
 18.820000 -0.018492  750.191857  99.983315
 18.830000 -0.017303  750.196799  99.983973
 18.840000 -0.016396  750.201177  99.984557
 18.850000 -0.016247  750.205282  99.985104
 18.860000 -0.015141  750.209082  99.985610
 18.870000 -0.011555  750.211877  99.985983
 18.880000 -0.008284  750.213434  99.986191
 18.890000 -0.005209  750.214172  99.986289
 18.900000 -0.002643  750.214435  99.986324
 18.910000 -0.001829  750.214515  99.986335
 18.920000  0.000027  750.214540  99.986338
 18.930000  0.001619  750.214561  99.986341
 18.940000  0.000899  750.214587  99.986344
 18.950000 -0.005121  750.214795  99.986372
 18.960000 -0.015573  750.216866  99.986648
 18.970000 -0.022336  750.222578  99.987409
 18.980000 -0.023631  750.230724  99.988495
 18.990000 -0.021799  750.238688  99.989556
 19.000000 -0.015063  750.244097  99.990277
 19.010000 -0.003272  750.245928  99.990521
 19.020000  0.009675  750.246732  99.990628
 19.030000  0.015898  750.249400  99.990984
 19.040000  0.017342  750.253665  99.991552
 19.050000  0.018888  750.258731  99.992228
 19.060000  0.019267  750.264340  99.992975
 19.070000  0.017775  750.269634  99.993681
 19.080000  0.015676  750.273962  99.994258
 19.090000  0.013794  750.277321  99.994705
 19.100000  0.012503  750.279992  99.995061
 19.110000  0.011404  750.282198  99.995355
 19.120000  0.009596  750.283909  99.995583
 19.130000  0.005176  750.284825  99.995705
 19.140000 -0.001094  750.285041  99.995734
 19.150000 -0.007094  750.285438  99.995787
 19.160000 -0.011984  750.286932  99.995986
 19.170000 -0.016162  750.290051  99.996402
 19.180000 -0.019013  750.294849  99.997041
 19.190000 -0.018918  750.300392  99.997780
 19.200000 -0.017039  750.305386  99.998446
 19.210000 -0.013408  750.309008  99.998928
 19.220000 -0.008531  750.310954  99.999188
 19.230000 -0.003658  750.311618  99.999276
 19.240000  0.001293  750.311734  99.999292
 19.250000  0.004345  750.311892  99.999313
 19.260000  0.004708  750.312208  99.999355
 19.270000  0.004098  750.312508  99.999395
 19.280000  0.002839  750.312700  99.999420
 19.290000  0.001494  750.312779  99.999431
 19.300000  0.000707  750.312800  99.999434
 19.310000  0.000497  750.312806  99.999435
 19.320000  0.000222  750.312808  99.999435
 19.330000 -0.000562  750.312811  99.999435
 19.340000 -0.001804  750.312838  99.999439
 19.350000 -0.002954  750.312931  99.999451
 19.360000 -0.003834  750.313111  99.999475
 19.370000 -0.004346  750.313370  99.999510
 19.380000 -0.004701  750.313686  99.999552
 19.390000 -0.004841  750.314037  99.999599
 19.400000 -0.004900  750.314402  99.999647
 19.410000 -0.004885  750.314771  99.999696
 19.420000 -0.004764  750.315130  99.999744
 19.430000 -0.004549  750.315464  99.999789
 19.440000 -0.004400  750.315773  99.999830
 19.450000 -0.004142  750.316054  99.999867
 19.460000 -0.003759  750.316295  99.999900
 19.470000 -0.003268  750.316486  99.999925
 19.480000 -0.002670  750.316623  99.999943
 19.490000 -0.002136  750.316713  99.999955
 19.500000 -0.001720  750.316771  99.999963
 19.510000 -0.001246  750.316806  99.999968
 19.520000 -0.000728  750.316822  99.999970
 19.530000 -0.000138  750.316826  99.999970
 19.540000  0.000288  750.316827  99.999970
 19.550000  0.000449  750.316829  99.999971
 19.560000  0.000432  750.316832  99.999971
 19.570000  0.000383  750.316835  99.999972
 19.580000  0.000328  750.316837  99.999972
 19.590000  0.000323  750.316839  99.999972
 19.600000  0.000375  750.316840  99.999972
 19.610000  0.000420  750.316843  99.999973
 19.620000  0.000445  750.316846  99.999973
 19.630000  0.000465  750.316849  99.999973
 19.640000  0.000464  750.316852  99.999974
 19.650000  0.000461  750.316856  99.999974
 19.660000  0.000470  750.316859  99.999975
 19.670000  0.000485  750.316862  99.999975
 19.680000  0.000500  750.316866  99.999976
 19.690000  0.000514  750.316870  99.999976
 19.700000  0.000525  750.316874  99.999977
 19.710000  0.000537  750.316879  99.999977
 19.720000  0.000544  750.316883  99.999978
 19.730000  0.000553  750.316888  99.999979
 19.740000  0.000562  750.316893  99.999979
 19.750000  0.000574  750.316898  99.999980
 19.760000  0.000590  750.316903  99.999981
 19.770000  0.000616  750.316908  99.999981
 19.780000  0.000651  750.316915  99.999982
 19.790000  0.000691  750.316921  99.999983
 19.800000  0.000732  750.316929  99.999984
 19.810000  0.000774  750.316938  99.999985
 19.820000  0.000816  750.316948  99.999987
 19.830000  0.000857  750.316959  99.999988
 19.840000  0.000899  750.316970  99.999990
 19.850000  0.000941  750.316984  99.999991
 19.860000  0.000983  750.316998  99.999993
 19.870000  0.001027  750.317013  99.999995
 19.880000  0.001071  750.317030  99.999998
 19.890000  0.001115  750.317049  100.000000
